#  Table pcf785lpsys.tab  Mon 12:21:20 02-Jun-97

#      WAVELENGTH      THROUGHPUT
#       angstroms                

            1870.              0.
         1871.658     1.140118E-9
         1873.318     2.291038E-9
         1874.979     3.453921E-9
         1876.642     4.628150E-9
         1878.306     5.812999E-9
         1879.972     7.007373E-9
         1881.639     7.054079E-9
         1883.308     7.081022E-9
         1884.978     7.107991E-9
          1886.65     7.135017E-9
         1888.322     7.162073E-9
         1889.997     7.189185E-9
         1891.674     7.216832E-9
          1893.35     7.244476E-9
          1895.03     7.272194E-9
          1896.71     7.299942E-9
         1898.392     7.327749E-9
         1900.077     7.412118E-9
         1901.761     8.684474E-9
         1903.447     9.967547E-9
         1905.135     1.126222E-8
         1906.824     1.256693E-8
         1908.516     1.388410E-8
         1910.209     1.521149E-8
         1911.903     1.654990E-8
         1913.597     1.789950E-8
         1915.295     1.926112E-8
         1916.993     2.063303E-8
         1918.694     2.201794E-8
         1920.396     2.249881E-8
         1922.098     1.995342E-8
         1923.802     1.738534E-8
         1925.508     1.479298E-8
         1927.216     1.217793E-8
         1928.926     9.539932E-9
         1930.637     7.381177E-9
         1932.347     6.056333E-9
         1934.061     4.718161E-9
         1935.778     3.367447E-9
         1937.494     2.006666E-9
         1939.212    6.331711E-10
         1940.931              0.
         1942.652              0.
         1944.376              0.
         1946.099              0.
         1947.826              0.
         1949.553              0.
         1951.281     1.058072E-9
         1953.012     2.496690E-9
         1954.745     3.947737E-9
         1956.477     5.410322E-9
         1958.213     6.886339E-9
          1959.95     8.374697E-9
         1961.687     7.024174E-9
         1963.427     5.575361E-9
         1965.169     4.113883E-9
         1966.911     2.640629E-9
         1968.655     1.153806E-9
         1970.401              0.
         1972.148              0.
         1973.897              0.
         1975.648              0.
           1977.4              0.
         1979.153              0.
         1980.909              0.
         1982.665              0.
         1984.423              0.
         1986.184              0.
         1987.944              0.
         1989.709              0.
         1991.473              0.
         1993.238              0.
         1995.006              0.
         1996.774              0.
         1998.547              0.
         2000.319              0.
         2002.091              0.
         2003.867              0.
         2005.645              0.
         2007.423              0.
         2009.204              0.
         2010.985              0.
         2012.768              0.
         2014.553              0.
         2016.341              0.
         2018.128              0.
         2019.919              0.
         2021.709              0.
         2023.501              0.
         2025.297              0.
         2027.094              0.
         2028.891              0.
          2030.69              0.
          2032.49              0.
         2034.293              0.
         2036.097              0.
         2037.903              0.
          2039.71              0.
         2041.519              0.
          2043.33              0.
         2045.141              0.
         2046.955              0.
         2048.771              0.
         2050.587              0.
         2052.406              0.
         2054.225              0.
         2056.047              0.
         2057.871              0.
         2059.695              0.
         2061.522              0.
         2063.351              0.
          2065.18              0.
         2067.011              0.
         2068.845              0.
          2070.68              0.
         2072.516              0.
         2074.354              0.
         2076.193              0.
         2078.034              0.
         2079.879              0.
         2081.722              0.
         2083.568              0.
         2085.416              0.
         2087.264              0.
         2089.117              0.
          2090.97              0.
         2092.822              0.
         2094.679              0.
         2096.535              0.
         2098.395              0.
         2100.258              0.
         2102.119              0.
         2103.983              0.
         2105.849              0.
         2107.716              0.
         2109.586              0.
         2111.458              0.
         2113.329              0.
         2115.202              0.
         2117.079              0.
         2118.957              0.
         2120.836              0.
         2122.717              0.
         2124.599              0.
         2126.482              0.
         2128.368              0.
         2130.256              0.
         2132.146              0.
         2134.037              0.
         2135.927              0.
         2137.822              0.
         2139.718              0.
         2141.616              0.
         2143.516              0.
         2145.416              0.
         2147.318              0.
         2149.224              0.
         2151.129              0.
         2153.037              0.
         2154.947              0.
         2156.857              0.
          2158.77              0.
         2160.685              0.
           2162.6              0.
         2164.518              0.
         2166.438              0.
         2168.359              0.
         2170.282              0.
         2172.207              0.
         2174.132              0.
         2176.061              0.
         2177.991              0.
         2179.922              0.
         2181.855              0.
         2183.791              0.
         2185.726              0.
         2187.666              0.
         2189.605              0.
         2191.547              0.
          2193.49              0.
         2195.436              0.
         2197.383              0.
         2199.333              0.
         2201.282              0.
         2203.233              0.
         2205.188              0.
         2207.144              0.
         2209.101              0.
         2211.061              0.
         2213.021              0.
         2214.982              0.
         2216.948              0.
         2218.914              0.
         2220.882              0.
          2222.85              0.
         2224.821              0.
         2226.795              0.
         2228.771              0.
         2230.746              0.
         2232.725              0.
         2234.703              0.
         2236.686              0.
          2238.67              0.
         2240.656              0.
         2242.642              0.
         2244.631              0.
         2246.622              0.
         2248.614              0.
         2250.608              0.
         2252.605              0.
         2254.602              0.
         2256.601              0.
         2258.603              0.
         2260.605              0.
          2262.61              0.
         2264.617              0.
         2266.625              0.
         2268.635              0.
         2270.646              0.
          2272.66              0.
         2274.676              0.
         2276.692              0.
         2278.712              0.
         2280.733              0.
         2282.755              0.
          2284.78              0.
         2286.806              0.
         2288.834              0.
         2290.863              0.
         2292.895              0.
         2294.928              0.
         2296.963              0.
         2299.002              0.
          2301.04              0.
          2303.08              0.
         2305.123              0.
         2307.166              0.
         2309.212              0.
         2311.262              0.
          2313.31              0.
         2315.361              0.
         2317.414              0.
         2319.469              0.
         2321.528              0.
         2323.587              0.
         2325.646              0.
         2327.708              0.
         2329.772              0.
          2331.84              0.
         2333.907              0.
         2335.978              0.
         2338.048              0.
         2340.121              0.
         2342.197              0.
         2344.274              0.
         2346.354              0.
         2348.434              0.
         2350.516              0.
           2352.6              0.
         2354.687              0.
         2356.776              0.
         2358.865              0.
         2360.957              0.
         2363.052              0.
         2365.146              0.
         2367.244              0.
         2369.344              0.
         2371.444              0.
         2373.547              0.
         2375.653              0.
         2377.759              0.
         2379.868              0.
         2381.979              0.
          2384.09              0.
         2386.205              0.
         2388.321              0.
         2390.438              0.
         2392.559              0.
         2394.682              0.
         2396.804              0.
          2398.93              0.
         2401.058              0.
         2403.186              0.
         2405.319              0.
         2407.451              0.
         2409.585              0.
         2411.722              0.
         2413.862              0.
         2416.003              0.
         2418.146              0.
         2420.289              0.
         2422.435              0.
         2424.583              0.
         2426.734              0.
         2428.886              0.
         2431.041              0.
         2433.196              0.
         2435.353              0.
         2437.514              0.
         2439.675              0.
         2441.839              0.
         2444.005              0.
         2446.171              0.
         2448.341              0.
         2450.513              0.
         2452.685              0.
          2454.86              0.
         2457.038              0.
         2459.216              0.
         2461.397              0.
         2463.581              0.
         2465.764              0.
         2467.951              0.
          2470.14              0.
          2472.33              0.
         2474.523              0.
         2476.718              0.
         2478.913              0.
         2481.112              0.
         2483.312              0.
         2485.514              0.
         2487.719              0.
         2489.926              0.
         2492.133              0.
         2494.343              0.
         2496.556              0.
         2498.769              0.
         2500.985              0.
         2503.203              0.
         2505.422              0.
         2507.645              0.
         2509.868              0.
         2512.094              0.
         2514.322              0.
         2516.552              0.
         2518.783              0.
         2521.016              0.
         2523.253              0.
          2525.49              0.
          2527.73              0.
         2529.972              0.
         2532.215              0.
         2534.461              0.
         2536.708              0.
         2538.958              0.
         2541.211              0.
         2543.464              0.
         2545.718              0.
         2547.975              0.
         2550.235              0.
         2552.499              0.
         2554.762              0.
         2557.026              0.
         2559.294              0.
         2561.563              0.
         2563.836              0.
          2566.11              0.
         2568.386              0.
         2570.662              0.
         2572.942              0.
         2575.225              0.
         2577.508              0.
         2579.794              0.
         2582.081              0.
          2584.37              0.
         2586.664              0.
         2588.957              0.
         2591.253              0.
          2593.55              0.
         2595.852              0.
         2598.153              0.
         2600.456              0.
         2602.763              0.
         2605.072              0.
         2607.382              0.
         2609.693              0.
         2612.008              0.
         2614.324              0.
         2616.643              0.
         2618.963              0.
         2621.285              0.
          2623.61              0.
         2625.937              0.
         2628.265              0.
         2630.596              0.
         2632.931              0.
         2635.263              0.
         2637.601              0.
          2639.94              0.
         2642.281              0.
         2644.626              0.
          2646.97              0.
         2649.317              0.
         2651.667              0.
         2654.019              0.
         2656.373              0.
         2658.729              0.
         2661.086              0.
         2663.445              0.
         2665.807              0.
         2668.171              0.
         2670.538              0.
         2672.907              0.
         2675.276              0.
         2677.648              0.
         2680.024              0.
           2682.4              0.
         2684.779              0.
         2687.161              0.
         2689.543              0.
         2691.928              0.
         2694.314              0.
         2696.704              0.
         2699.096              0.
          2701.49              0.
         2703.885              0.
         2706.282              0.
         2708.684              0.
         2711.085              0.
          2713.49              0.
         2715.896              0.
         2718.304              0.
         2720.715              0.
         2723.128              0.
         2725.542              0.
          2727.96              0.
         2730.378              0.
           2732.8              0.
         2735.224              0.
          2737.65              0.
         2740.077              0.
         2742.507              0.
          2744.94              0.
         2747.373              0.
          2749.81              0.
         2752.249              0.
         2754.689              0.
         2757.132              0.
         2759.578              0.
         2762.024              0.
         2764.474              0.
         2766.926              0.
         2769.379              0.
         2771.835              0.
         2774.294              0.
         2776.753              0.
         2779.216              0.
         2781.681              0.
         2784.147              0.
         2786.616              0.
         2789.086              0.
         2791.561              0.
         2794.038              0.
         2796.515              0.
         2798.994              0.
         2801.475              0.
          2803.96              0.
         2806.448              0.
         2808.938              0.
         2811.428              0.
          2813.92              0.
         2816.416              0.
         2818.914              0.
         2821.414              0.
         2823.917              0.
          2826.42              0.
         2828.926              0.
         2831.437              0.
         2833.946              0.
          2836.46              0.
         2838.974              0.
         2841.491              0.
         2844.013              0.
         2846.534              0.
         2849.059              0.
         2851.586              0.
         2854.115              0.
         2856.645              0.
         2859.177              0.
         2861.714              0.
         2864.252              0.
         2866.792              0.
         2869.334              0.
         2871.879              0.
         2874.426              0.
         2876.974              0.
         2879.526              0.
         2882.079              0.
         2884.635              0.
         2887.194              0.
         2889.753              0.
         2892.316              0.
         2894.883              0.
         2897.448              0.
         2900.018              0.
          2902.59              0.
         2905.163              0.
         2907.742              0.
         2910.319              0.
         2912.899              0.
         2915.483              0.
         2918.069              0.
         2920.659              0.
         2923.246              0.
         2925.839              0.
         2928.433              0.
          2931.03              0.
          2933.63              0.
          2936.23              0.
         2938.836              0.
         2941.441              0.
         2944.049              0.
         2946.662              0.
         2949.274              0.
         2951.892              0.
         2954.508              0.
         2957.127              0.
          2959.75              0.
         2962.374              0.
         2965.001              0.
         2967.631              0.
         2970.264              0.
         2972.897              0.
         2975.532              0.
         2978.173              0.
         2980.813              0.
         2983.457              0.
         2986.103              0.
          2988.75              0.
         2991.401              0.
         2994.054              0.
         2996.708              0.
         2999.367              0.
         3002.027              0.
         3004.688              0.
         3007.353              0.
         3010.021              0.
         3012.689              0.
         3015.361              0.
         3018.036              0.
         3020.711              0.
         3023.391              0.
         3026.072              0.
         3028.755              0.
         3031.441              0.
          3034.13              0.
          3036.82              0.
         3039.513              0.
         3042.209              0.
         3044.908              0.
         3047.605              0.
          3050.31              0.
         3053.014              0.
          3055.72              0.
         3058.433              0.
         3061.144              0.
         3063.857              0.
         3066.576              0.
         3069.295              0.
         3072.019              0.
         3074.742              0.
         3077.468              0.
         3080.198              0.
         3082.928              0.
         3085.664              0.
         3088.399              0.
         3091.139              0.
         3093.879              0.
         3096.621              0.
          3099.37              0.
         3102.117              0.
         3104.871              0.
         3107.623              0.
         3110.377              0.
         3113.138              0.
         3115.898              0.
          3118.66              0.
         3121.428              0.
         3124.195              0.
         3126.964              0.
         3129.736              0.
         3132.514              0.
         3135.292              0.
         3138.073              0.
         3140.855              0.
         3143.639              0.
         3146.428              0.
         3149.219              0.
         3152.012              0.
         3154.806              0.
         3157.603              0.
         3160.403              0.
         3163.208              0.
         3166.012              0.
         3168.822              0.
         3171.631              0.
         3174.443              0.
         3177.257              0.
         3180.077              0.
         3182.897              0.
         3185.717              0.
         3188.545              0.
         3191.371              0.
           3194.2              0.
         3197.035              0.
         3199.869              0.
         3202.706              0.
         3205.546              0.
          3208.39              0.
         3211.237              0.
         3214.082              0.
         3216.935              0.
         3219.784              0.
          3222.64              0.
         3225.499              0.
         3228.358              0.
         3231.223              0.
         3234.088              0.
         3236.955              0.
         3239.827              0.
         3242.699              0.
         3245.577              0.
         3248.455              0.
         3251.334              0.
         3254.216              0.
         3257.103              0.
         3259.992              0.
         3262.883              0.
         3265.777              0.
         3268.672              0.
          3271.57              0.
         3274.474              0.
         3277.376              0.
         3280.283              0.
         3283.193              0.
         3286.103              0.
         3289.018              0.
         3291.935              0.
         3294.853              0.
         3297.778              0.
         3300.701              0.
         3303.627              0.
         3306.557              0.
          3309.49              0.
         3312.424              0.
         3315.362              0.
         3318.302              0.
         3321.244              0.
          3324.19              0.
         3327.138              0.
         3330.088              0.
         3333.042              0.
         3335.996              0.
         3338.955              0.
         3341.917              0.
         3344.881              0.
         3347.848              0.
         3350.816              0.
         3353.788              0.
         3356.761              0.
         3359.736              0.
         3362.718              0.
         3365.699              0.
         3368.683              0.
         3371.673              0.
         3374.661              0.
         3377.656              0.
         3380.651              0.
         3383.649              0.
         3386.649              0.
         3389.653              0.
         3392.659              0.
         3395.667              0.
         3398.678              0.
         3401.691              0.
         3404.708              0.
         3407.729              0.
         3410.749              0.
         3413.776              0.
         3416.802              0.
         3419.831              0.
         3422.867     1.111246E-8
         3425.901     2.291048E-8
         3428.938     3.475641E-8
         3431.981     3.123372E-8
         3435.023     1.941544E-8
         3438.068     7.548712E-9
         3441.116              0.
          3444.17              0.
         3447.225              0.
         3450.283     1.111810E-9
         3453.341     1.316043E-8
         3456.402     2.525966E-8
          3459.47     3.742324E-8
         3462.537     2.954153E-8
         3465.608     1.741303E-8
          3468.68     5.242092E-9
         3471.755              0.
         3474.836              0.
         3477.918              0.
         3481.001              0.
         3484.091              0.
         3487.179              0.
         3490.271              0.
         3493.364              0.
         3496.465              0.
         3499.564              0.
         3502.667              0.
         3505.775              0.
         3508.883              0.
         3511.993              0.
          3515.11              0.
         3518.226              0.
         3521.345              0.
         3524.469              0.
         3527.595              0.
         3530.724              0.
         3533.854              0.
          3536.99              0.
         3540.123              0.
         3543.263              0.
         3546.406              0.
          3549.55              0.
           3552.7              0.
          3555.85              0.
         3559.002              0.
          3562.16              0.
         3565.318              0.
         3568.482              0.
         3571.646     6.910429E-9
         3574.812     2.023965E-8
         3577.981     3.362774E-8
         3581.154     4.221011E-8
         3584.331     4.228449E-8
          3587.51     4.235901E-8
         3590.692     3.949668E-8
         3593.877     2.602822E-8
         3597.061     1.251620E-8
         3600.253              0.
         3603.445              0.
         3606.641              0.
          3609.84              0.
          3613.04              0.
         3616.245              0.
          3619.45              0.
         3622.661              0.
         3625.876              0.
          3629.09              0.
         3632.307              0.
         3635.527              0.
         3638.754              0.
         3641.979              0.
          3645.21              0.
         3648.443              0.
         3651.677              0.
         3654.916              0.
         3658.158              0.
         3661.401              0.
         3664.648              0.
         3667.899              0.
          3671.15              0.
         3674.407              0.
         3677.666              0.
         3680.928              0.
         3684.191              0.
         3687.459              0.
         3690.727              0.
         3694.001              0.
         3697.278              0.
         3700.555              0.
         3703.835              0.
         3707.123              0.
         3710.409              0.
         3713.702              0.
         3716.994              0.
         3720.291              0.
         3723.589              0.
         3726.892              0.
         3730.197              0.
         3733.504              0.
         3736.815              0.
         3740.128              0.
         3743.448              0.
         3746.766              0.
         3750.087              0.
         3753.416              0.
         3756.743              0.
         3760.073              0.
          3763.41              0.
         3766.746              0.
         3770.087              0.
         3773.429              0.
         3776.776              0.
         3780.126              0.
         3783.477              0.
         3786.833              0.
         3790.192              0.
         3793.552              0.
         3796.917              0.
         3800.282              0.
         3803.655              0.
         3807.027              0.
         3810.404              0.
         3813.784              0.
         3817.164              0.
          3820.55              0.
         3823.939              0.
         3827.329              0.
         3830.723              0.
         3834.119              0.
          3837.52              0.
         3840.922              0.
         3844.331              0.
         3847.739              0.
         3851.149              0.
         3854.567              0.
         3857.984              0.
         3861.404              0.
         3864.831              0.
         3868.257              0.
         3871.688              0.
         3875.123              0.
         3878.558              0.
         3881.998              0.
         3885.439              0.
         3888.885              0.
         3892.335              0.
         3895.787              0.
         3899.241              0.
         3902.697              0.
         3906.161              0.
         3909.624              0.
         3913.092              0.
         3916.562              0.
         3920.034              0.
         3923.513              0.
         3926.991              0.
         3930.472              0.
         3933.959              0.
         3937.448              0.
         3940.938              0.
         3944.432              0.
         3947.933              0.
         3951.432              0.
         3954.935              0.
         3958.445              0.
         3961.954              0.
         3965.469              0.
         3968.986              0.
         3972.504              0.
         3976.028              0.
         3979.552              0.
         3983.082              0.
         3986.617              0.
         3990.151              0.
          3993.69              0.
          3997.23              0.
         4000.776              0.
         4004.323              0.
         4007.874              0.
         4011.429              0.
         4014.985              0.
         4018.546              0.
         4022.111              0.
         4025.676              0.
         4029.249              0.
         4032.821              0.
         4036.396              0.
         4039.976              0.
          4043.56              0.
         4047.144              0.
         4050.731              0.
         4054.327              0.
         4057.921              0.
          4061.52              0.
         4065.123              0.
         4068.726              0.
         4072.337              0.
         4075.947              0.
          4079.56              0.
         4083.181              0.
         4086.801              0.
         4090.426              0.
         4094.054              0.
         4097.683              0.
         4101.317              0.
         4104.953              0.
         4108.594              0.
         4112.236              0.
         4115.886              0.
         4119.535              0.
         4123.186              0.
         4126.846              0.
         4130.504              0.
         4134.166              0.
         4137.834              0.
         4141.502              0.
         4145.176              0.
         4148.853              0.
         4152.531              0.
         4156.211              0.
         4159.898              0.
         4163.588              0.
         4167.281              0.
         4170.975              0.
         4174.675              0.
         4178.375              0.
         4182.084              0.
         4185.791              0.
         4189.504              0.
         4193.217              0.
         4196.937              0.
          4200.66              0.
         4204.385              0.
         4208.112              0.
         4211.845              0.
         4215.579              0.
         4219.318              0.
         4223.058              0.
         4226.806              0.
         4230.553              0.
         4234.303              0.
         4238.061              0.
         4241.818              0.
         4245.578              0.
         4249.346              0.
         4253.113              0.
         4256.886              0.
         4260.659              0.
         4264.438              0.
         4268.218              0.
         4272.004              0.
         4275.793              0.
         4279.584              0.
         4283.382              0.
         4287.179              0.
         4290.979              0.
         4294.788              0.
         4298.595              0.
         4302.408              0.
         4306.224              0.
         4310.042              0.
         4313.867              0.
          4317.69              0.
         4321.518              0.
         4325.351              0.
         4329.188              0.
         4333.025              0.
         4336.866              0.
         4340.715              0.
         4344.563              0.
         4348.417              0.
         4352.274              0.
         4356.132              0.
         4359.996              0.
         4363.863              0.
         4367.731              0.
         4371.605              0.
         4375.483              0.
         4379.362              0.
         4383.249              0.
         4387.134              0.
         4391.025     1.664414E-8
         4394.918     7.989245E-8
         4398.816     1.433376E-7
         4402.715     2.216212E-7
         4406.623     3.066484E-7
         4410.529     3.917813E-7
         4414.439     4.771211E-7
         4418.357     5.627788E-7
         4422.274     6.114028E-7
         4426.194     6.332561E-7
         4430.122     6.538582E-7
         4434.049     6.329360E-7
         4437.982     6.119489E-7
         4441.917     5.699695E-7
         4445.856     5.057512E-7
         4449.797     4.414135E-7
         4453.742     3.974178E-7
         4457.695     3.543678E-7
         4461.648     3.021957E-7
         4465.604     2.372539E-7
         4469.564     1.721132E-7
         4473.526     1.456575E-7
         4477.497     1.239083E-7
         4481.466     1.021327E-7
         4485.438     8.030657E-8
          4489.42     5.839494E-8
         4493.399     3.645945E-8
         4497.382     1.447054E-8
         4501.374              0.
         4505.364              0.
         4509.358              0.
         4513.358              0.
         4517.361              0.
         4521.366              0.
         4525.378              0.
          4529.39              0.
         4533.405              0.
         4537.426              0.
         4541.451              0.
         4545.477              0.
         4549.511              0.
         4553.544              0.
         4557.583              0.
         4561.625              0.
         4565.669              0.
         4569.716              0.
         4573.772              0.
         4577.826              0.
         4581.887              0.
         4585.951              0.
         4590.016              0.
         4594.085              0.
          4598.16              0.
         4602.238              0.
         4606.321              0.
         4610.406              0.
         4614.493              0.
         4618.583              0.
          4622.68              0.
         4626.781              0.
         4630.885              0.
         4634.992              0.
         4639.101              0.
         4643.216              0.
         4647.332              0.
         4651.454              0.
          4655.58              0.
         4659.709              0.
          4663.84              0.
         4667.977              0.
         4672.114              0.
         4676.258              0.
         4680.406              0.
         4684.558              0.
          4688.71              0.
         4692.869              0.
         4697.032              0.
         4701.195              0.
         4705.363              0.
         4709.539              0.
         4713.714              0.
         4717.895              0.
          4722.08              0.
         4726.266              0.
         4730.455              0.
         4734.653              0.
         4738.851              0.
         4743.054              0.
         4747.261              0.
         4751.469              0.
         4755.681              0.
         4759.902              0.
         4764.121              0.
         4768.347              0.
         4772.577              0.
         4776.807              0.
         4781.047              0.
         4785.285              0.
         4789.527              0.
         4793.775              0.
         4798.027              0.
          4802.28              0.
         4806.542              0.
         4810.803              0.
         4815.068              0.
         4819.339              0.
         4823.613              0.
         4827.889              0.
         4832.174              0.
         4836.458              0.
         4840.748              0.
         4845.039              0.
         4849.336              0.
         4853.635              0.
          4857.94              0.
         4862.249              0.
         4866.562              0.
         4870.876              0.
         4875.196              0.
         4879.518              0.
         4883.846              0.
         4888.178              0.
         4892.514              0.
         4896.853              0.
         4901.194              0.
         4905.539              0.
          4909.89              0.
         4914.245              0.
         4918.604              0.
         4922.967              0.
         4927.331              0.
         4931.698              0.
         4936.073              0.
         4940.451              0.
         4944.831              0.
         4949.219              0.
         4953.606              0.
         4957.998              0.
         4962.395              0.
         4966.797              0.
           4971.2              0.
         4975.612              0.
         4980.022              0.
         4984.439              0.
         4988.858              0.
         4993.283              0.
         4997.709              0.
         5002.145              0.
         5006.579              0.
          5011.02              0.
         5015.465              0.
         5019.911              0.
          5024.36              0.
          5028.82              0.
         5033.278              0.
         5037.742              0.
          5042.21              0.
          5046.68              0.
         5051.154              0.
         5055.637              0.
         5060.119              0.
         5064.607              0.
         5069.099              0.
         5073.593              0.
          5078.09              0.
         5082.594              0.
         5087.103              0.
         5091.615              0.
         5096.131              0.
         5100.648              0.
         5105.175              0.
         5109.698              0.
          5114.23              0.
         5118.767              0.
         5123.307              0.
         5127.849              0.
           5132.4              0.
         5136.946              0.
         5141.503              0.
         5146.063              0.
         5150.628              0.
         5155.194              0.
         5159.766              0.
         5164.343              0.
         5168.921              0.
         5173.503              0.
         5178.095              0.
         5182.685              0.
         5187.282              0.
         5191.883              0.
         5196.485              0.
         5201.091              0.
         5205.708              0.
         5210.322              0.
         5214.944              0.
         5219.569              0.
         5224.196              0.
         5228.827              0.
         5233.468              0.
         5238.107              0.
         5242.753              0.
         5247.404              0.
         5252.055              0.
         5256.717              0.
         5261.376              0.
         5266.041              0.
         5270.711              0.
         5275.386              0.
         5280.063              0.
         5284.749              0.
         5289.434              0.
         5294.123              0.
         5298.818              0.
         5303.519              0.
          5308.22              0.
         5312.931              0.
         5317.641              0.
         5322.354              0.
         5327.075              0.
           5331.8              0.
         5336.527              0.
         5341.263              0.
         5345.998              0.
          5350.74              0.
         5355.483              0.
         5360.233              0.
         5364.985              0.
         5369.743              0.
         5374.506              0.
         5379.273              0.
         5384.045              0.
         5388.817              0.
         5393.594              0.
         5398.378              0.
         5403.167              0.
         5407.959              0.
         5412.756              0.
         5417.554              0.
         5422.356              0.
         5427.166              0.
          5431.98              0.
         5436.798              0.
         5441.621              0.
         5446.444              0.
         5451.272              0.
         5456.107              0.
         5460.947              0.
         5465.788              0.
         5470.639              0.
         5475.488              0.
         5480.345              0.
         5485.203              0.
         5490.068              0.
         5494.935              0.
         5499.812              0.
         5504.688              0.
          5509.57              0.
         5514.457              0.
         5519.345              0.
         5524.238              0.
         5529.141              0.
         5534.042              0.
         5538.951              0.
         5543.864              0.
         5548.778              0.
         5553.697              0.
         5558.626              0.
         5563.554              0.
         5568.488              0.
         5573.428              0.
         5578.368              0.
         5583.313              0.
         5588.265              0.
         5593.222              0.
         5598.183              0.
         5603.149              0.
         5608.116              0.
         5613.093              0.
         5618.066              0.
         5623.049              0.
         5628.037              0.
         5633.029              0.
         5638.022              0.
         5643.026              0.
         5648.025              0.
         5653.035              0.
         5658.049              0.
         5663.068              0.
         5668.088              0.
         5673.119              0.
         5678.147              0.
         5683.181              0.
         5688.222              0.
         5693.267              0.
         5698.314              0.
         5703.368              0.
         5708.427              0.
          5713.49              0.
         5718.552              0.
         5723.627              0.
         5728.701              0.
         5733.782              0.
         5738.868              0.
         5743.956              0.
         5749.047              0.
          5754.15              0.
          5759.25              0.
         5764.359              0.
         5769.472              0.
         5774.586              0.
         5779.711              0.
         5784.834              0.
         5789.963              0.
         5795.098              0.
         5800.239              0.
          5805.38              0.
         5810.533              0.
         5815.684              0.
         5820.839              0.
         5826.001              0.
         5831.169              0.
         5836.338              0.
         5841.519              0.
         5846.697              0.
         5851.879              0.
          5857.07              0.
         5862.265              0.
         5867.461              0.
         5872.669              0.
         5877.875              0.
         5883.089              0.
         5888.304              0.
         5893.527              0.
         5898.751              0.
         5903.986              0.
          5909.22              0.
         5914.461              0.
         5919.708              0.
         5924.955              0.
         5930.207              0.
         5935.467              0.
         5940.732              0.
         5946.001              0.
         5951.275              0.
         5956.551              0.
         5961.831              0.
         5967.119              0.
         5972.412              0.
         5977.709              0.
         5983.012              0.
         5988.315              0.
         5993.624              0.
          5998.94              0.
         6004.261              0.
         6009.583              0.
         6014.917              0.
         6020.249              0.
         6025.592              0.
          6030.93              0.
          6036.28              0.
          6041.63              0.
         6046.993              0.
         6052.353              0.
         6057.721              0.
         6063.095              0.
         6068.469              0.
         6073.849              0.
         6079.239              0.
         6084.628              0.
         6090.025              0.
         6095.427              0.
         6100.831              0.
         6106.238              0.
         6111.658              0.
         6117.076              0.
         6122.501              0.
         6127.932              0.
         6133.364              0.
         6138.801              0.
          6144.25              0.
         6149.696              0.
         6155.151              0.
          6160.61              0.
         6166.071              0.
         6171.544              0.
         6177.011              0.
          6182.49              0.
         6187.974              0.
         6193.463              0.
         6198.953              0.
         6204.455              0.
         6209.951              0.
         6215.459              0.
         6220.973              0.
         6226.491              0.
          6232.01              0.
         6237.541              0.
          6243.07              0.
         6248.604              0.
         6254.147              0.
         6259.694              0.
         6265.243              0.
         6270.804              0.
         6276.363              0.
          6281.93              0.
         6287.495              0.
         6293.075              0.
         6298.654              0.
         6304.241              0.
         6309.833              0.
         6315.429              0.
         6321.024              0.
         6326.634              0.
         6332.243              0.
         6337.859              0.
         6343.481              0.
         6349.104              0.
         6354.739              0.
         6360.372              0.
          6366.01              0.
         6371.657              0.
         6377.309              0.
         6382.962              0.
         6388.627              0.
          6394.29              0.
         6399.958              0.
         6405.635              0.
         6411.317              0.
         6417.003              0.
         6422.695              0.
         6428.389              0.
         6434.087              0.
         6439.794              0.
         6445.506              0.
         6451.223              0.
         6456.945              0.
         6462.669              0.
         6468.401              0.
         6474.135              0.
         6479.878              0.
         6485.622              0.
         6491.375              0.
         6497.133              0.
         6502.896              0.
         6508.664              0.
         6514.433              0.
         6520.208              0.
         6525.991              0.
          6531.78              0.
         6537.573              0.
         6543.372              0.
         6549.172              0.
         6554.978              0.
         6560.792              0.
         6566.611              0.
         6572.436              0.
         6578.266              0.
         6584.097              0.
         6589.934              0.
         6595.779              0.
         6601.629              0.
         6607.485              0.
         6613.346              0.
         6619.208              0.
         6625.079              0.
         6630.952              0.
         6636.833              0.
          6642.72              0.
         6648.612              0.
         6654.506              0.
         6660.409              0.
         6666.316              0.
         6672.226              0.
         6678.144              0.
         6684.067              0.
         6689.992              0.
         6695.926              0.
         6701.866              0.
         6707.807              0.
         6713.756              0.
         6719.711              0.
         6725.668              0.
         6731.634              0.
         6737.604              0.
         6743.581              0.
         6749.555              0.
         6755.545              0.
         6761.534              0.
         6767.531              0.
         6773.534              0.
         6779.542              0.
         6785.556              0.
         6791.567              0.
         6797.591              0.
          6803.62              0.
         6809.655              0.
         6815.695              0.
         6821.737              0.
         6827.784              0.
          6833.84              0.
         6839.902              0.
         6845.969              0.
         6852.037              0.
         6858.115              0.
         6864.198              0.
         6870.283              0.
         6876.377              0.
         6882.476              0.
         6888.577              0.
         6894.687              0.
         6900.803              0.
         6906.924              0.
         6913.046              0.
         6919.178              0.
         6925.312              0.
         6931.454              0.
         6937.603              0.
         6943.756              0.
         6949.911              0.
         6956.076              0.
         6962.242              0.
         6968.417              0.
         6974.599              0.
         6980.785     9.402619E-9
         6986.977     8.344085E-8
          6993.17     1.193575E-7
          6999.37     1.191216E-7
         7005.578     1.187791E-7
         7011.792     1.184243E-7
         7018.011     1.180684E-7
         7024.236     1.177145E-7
         7030.463     1.173621E-7
         7036.695     1.170125E-7
         7042.937     1.166619E-7
         7049.184     1.163106E-7
         7055.436     1.159619E-7
         7061.694     1.156139E-7
         7067.954     1.152664E-7
         7074.219     1.634069E-7
         7080.494     2.291457E-7
         7086.774     2.284536E-7
         7093.061     2.626184E-7
         7099.352     3.332604E-7
         7105.645     3.395903E-7
         7111.948     3.605451E-7
         7118.252     4.303845E-7
         7124.566     4.486878E-7
         7130.885     4.572261E-7
         7137.207     5.263227E-7
         7143.537     5.950902E-7
         7149.874     6.634903E-7
         7156.215     8.002037E-7
         7162.559     9.375126E-7
         7168.908     1.074091E-6
         7175.267     1.210054E-6
         7181.631     1.363092E-6
         7188.001     1.566846E-6
         7194.377     1.769527E-6
         7200.754     1.979182E-6
         7207.138     2.248403E-6
          7213.53     2.554283E-6
         7219.929     2.889233E-6
         7226.333     3.357731E-6
         7232.742     3.825238E-6
         7239.154     4.289918E-6
         7245.571     4.929041E-6
         7251.998     5.634132E-6
          7258.43     6.428720E-6
         7264.868     7.423190E-6
         7271.313     8.505585E-6
         7277.758     9.688502E-6
         7284.213     1.117217E-5
          7290.67     1.282327E-5
         7297.137     1.458638E-5
         7303.609     1.678567E-5
         7310.088     1.932882E-5
         7316.568     2.205315E-5
         7323.058     2.532545E-5
         7329.553     2.920832E-5
          7336.05     3.337469E-5
         7342.558     3.821575E-5
          7349.07     4.406524E-5
         7355.585     5.027198E-5
         7362.109     5.731571E-5
         7368.639     6.599799E-5
         7375.171     7.524327E-5
         7381.713     8.562522E-5
          7388.26     9.881696E-5
          7394.81     1.125923E-4
         7401.369     1.277097E-4
         7407.934     1.471717E-4
         7414.504     1.673604E-4
         7421.077     1.890859E-4
          7427.66     2.172200E-4
         7434.244     2.463329E-4
         7440.838     2.773763E-4
         7447.438     3.180964E-4
         7454.044     3.597575E-4
         7460.655     4.034362E-4
         7467.265     4.605351E-4
         7473.888     5.187911E-4
         7480.518     5.793663E-4
         7487.153     6.591526E-4
         7493.794     7.397503E-4
         7500.441     8.226863E-4
         7507.085     9.309531E-4
         7513.744     0.001040006
         7520.409     0.001151605
         7527.079     0.001295931
         7533.756     0.001440008
         7540.438     0.001590213
         7547.123     0.001832234
         7553.813     0.001941682
         7560.513     0.001951718
         7567.219     0.001961666
         7573.927     0.001971525
         7580.645      0.00211302
         7587.369     0.002327871
         7594.099     0.002564424
         7600.831     0.002812481
         7607.572     0.003077707
         7614.316     0.003371299
          7621.07     0.003683175
          7627.83     0.004014557
         7634.596     0.004370142
         7641.363     0.004738764
         7648.141     0.005134704
         7654.921     0.005548502
          7661.71     0.005989458
         7668.506     0.006464799
         7675.309     0.006960247
         7682.116     0.007471964
         7688.926     0.008003705
         7695.742     0.008563175
         7702.568     0.009141949
           7709.4      0.00973222
         7716.238      0.01036011
         7723.083       0.0110066
         7729.929      0.01167612
         7736.781      0.01236582
         7743.644      0.01305803
         7750.512      0.01375952
         7757.387      0.01447611
         7764.267      0.01522468
          7771.15      0.01596562
         7778.039      0.01674179
         7784.938      0.01752102
         7791.843      0.01831383
         7798.754      0.01910437
         7805.672      0.01989887
         7812.591      0.02069166
         7819.521      0.02149085
         7826.452      0.02229096
         7833.394      0.02311645
         7840.342       0.0239288
         7847.297       0.0247559
         7854.253      0.02554469
          7861.22      0.02634684
         7868.192      0.02714156
         7875.167      0.02792063
         7882.152      0.02870158
          7889.14      0.02948555
         7896.137      0.03026947
         7903.141      0.03101742
         7910.151      0.03174409
         7917.163      0.03249324
         7924.181      0.03321923
          7931.21      0.03390559
         7938.245       0.0346255
         7945.286      0.03531807
         7952.333      0.03597553
         7959.383      0.03663894
         7966.438      0.03727581
         7973.504      0.03793082
         7980.577      0.03851701
         7987.656      0.03909203
         7994.741      0.03967884
         8001.828      0.04123814
         8008.929      0.04161375
         8016.024       0.0420023
         8023.135      0.04237261
         8030.251      0.04273337
         8037.374      0.04304678
         8044.499      0.04341529
         8051.634      0.04375479
         8058.776      0.04410075
         8065.919      0.04444142
         8073.074      0.04475975
         8080.235        0.045059
         8087.397      0.04533771
         8094.571      0.04557411
          8101.75      0.04584448
         8108.933      0.04609197
         8116.125      0.04630698
         8123.324      0.04651207
         8130.525      0.04667554
         8137.736      0.04688737
         8144.955      0.04703063
         8152.179      0.04719128
         8159.406      0.04731489
         8166.643      0.04737426
         8173.882      0.04751034
         8181.132      0.04758129
         8188.389      0.04764556
         8195.652      0.04771165
         8202.922      0.04772289
         8210.193      0.04776129
         8217.471      0.04778418
          8224.76      0.04779142
         8232.055      0.04774812
         8239.356      0.04770794
         8246.665      0.04768695
         8253.971      0.04766262
         8261.292      0.04761198
          8268.62      0.04755312
         8275.954      0.04753475
         8283.295      0.04744685
         8290.642      0.04738969
         8297.991      0.04728067
         8305.347      0.04725651
         8312.714      0.04713733
         8320.087      0.04705955
         8327.462      0.04693213
         8334.854      0.04683938
         8342.241      0.04673633
         8349.642      0.04658945
         8357.043      0.04662856
         8364.455      0.04665763
          8371.87       0.0467236
         8379.296      0.04674642
         8386.729      0.04675837
         8394.167      0.04677869
         8401.608      0.04682858
         8409.061       0.0467987
         8416.515      0.04677917
         8423.979       0.0467652
         8431.452      0.04679273
         8438.931      0.04676285
         8446.416      0.04672394
         8453.903      0.04669535
         8461.397      0.04667704
         8468.902       0.0466568
         8476.414      0.04659093
         8483.933      0.04658386
         8491.458      0.04653061
         8498.985      0.04650893
         8506.519      0.04639419
         8514.064      0.04636711
         8521.616      0.04629204
         8529.175      0.04624239
          8536.74      0.04615765
         8544.308      0.04606609
         8551.882      0.04600017
         8559.467      0.04587121
          8567.06      0.04582553
         8574.658      0.04571435
         8582.264      0.04563834
         8589.871      0.04550598
          8597.49      0.04540867
         8605.111      0.04530135
         8612.744      0.04521405
         8620.384       0.0450899
          8628.03      0.04496695
         8635.679      0.04486102
         8643.338      0.04472162
         8651.005      0.04458518
         8658.674      0.04447951
         8666.354      0.04430054
         8674.036      0.04422547
         8681.729      0.04403969
         8689.431      0.04390513
         8697.138      0.04372132
         8704.848      0.04360576
         8712.563      0.04344466
         8720.292      0.04327446
         8728.026      0.04313663
         8735.769      0.04300436
         8743.517      0.04279817
         8751.272      0.04265217
         8759.025       0.0424697
         8766.794      0.04232299
          8774.57      0.04214551
         8782.354      0.04193968
         8790.144      0.04178591
          8797.94      0.04162371
         8805.739      0.04142592
         8813.545      0.04123103
         8821.362      0.04107223
         8829.187      0.04087865
         8837.019      0.04070572
         8844.852      0.04049299
         8852.697      0.04028515
         8860.545      0.04008744
         8868.403      0.03989295
          8876.27      0.03967443
         8884.144      0.03947024
         8892.019      0.03928414
         8899.905      0.03907003
           8907.8      0.03883383
         8915.696      0.03864675
         8923.604      0.03844109
          8931.52      0.03822703
         8939.437      0.03798657
         8947.366       0.0377879
         8955.303      0.03756059
         8963.245      0.03732463
         8971.191      0.03709167
         8979.148      0.03685725
         8987.108       0.0366304
         8995.079      0.03638218
         9003.058      0.03616139
         9011.044      0.03595771
         9019.036      0.03572444
         9027.031       0.0354975
         9035.033      0.03528519
         9043.047      0.03504029
         9051.068      0.03484427
         9059.097      0.03461504
         9067.132       0.0343677
         9075.165       0.0341302
         9083.214       0.0339305
         9091.271      0.03367266
         9099.335      0.03345617
         9107.406      0.03322693
         9115.484      0.03299421
         9123.564      0.03273143
         9131.652      0.03249732
         9139.752      0.03226545
         9147.858      0.03200013
         9155.973      0.03175781
         9164.089      0.03150667
         9172.218      0.03128433
         9180.354      0.03098641
         9188.491      0.03074855
         9196.642      0.03050051
         9204.794      0.03025955
         9212.958      0.02997421
          9221.13      0.02971527
          9229.31      0.02949118
          9237.49      0.02921246
         9245.684      0.02894873
          9253.88      0.02867038
         9262.088      0.02839521
         9270.304      0.02815017
         9278.526      0.02786391
         9286.756      0.02758234
         9294.988      0.02732156
         9303.228      0.02702261
         9311.479      0.02674159
         9319.739      0.02646807
         9328.006      0.02618099
         9336.279      0.02590281
         9344.561      0.02560732
         9352.839      0.02530428
         9361.135      0.02505329
         9369.438      0.02475531
         9377.749      0.02448296
         9386.066      0.02414404
         9394.387       0.0238901
         9402.715      0.02357423
         9411.055      0.02327936
         9419.402      0.02296126
         9427.757      0.02267057
         9436.119       0.0223801
         9444.484      0.02205739
         9452.861      0.02176958
         9461.241      0.02144412
         9469.633      0.02113447
         9478.032      0.02083943
         9486.439      0.02051274
         9494.849      0.02020106
         9503.271      0.01991432
           9511.7      0.01969934
         9520.132       0.0194401
         9528.575      0.01918532
         9537.022      0.01895271
         9545.481      0.01871775
         9553.948      0.01847883
         9562.423      0.01822201
         9570.899      0.01797595
         9579.389      0.01775931
          9587.88      0.01751813
         9596.385      0.01725942
         9604.896      0.01703246
         9613.416      0.01680441
         9621.943      0.01655871
         9630.467       0.0163158
         9639.009      0.01606802
         9647.559      0.01584383
         9656.116      0.01559722
         9664.681      0.01536072
         9673.254      0.01512892
         9681.834      0.01486934
         9690.411      0.01464727
         9699.006      0.01441151
         9707.609      0.01416999
          9716.22      0.01394323
         9724.838      0.01370693
         9733.459      0.01346745
         9742.087       0.0132371
         9750.728      0.01300414
         9759.377      0.01275056
         9768.033      0.01252972
         9776.697      0.01228646
         9785.364      0.01203263
         9794.044      0.01181209
         9802.726       0.0115738
          9811.42      0.01133624
         9820.123      0.01108993
         9828.828      0.01085612
         9837.546      0.01063052
         9846.272      0.01039298
         9855.006      0.01015211
         9863.741     0.009929766
          9872.49     0.009690731
         9881.242     0.009458932
         9890.007     0.009231015
         9898.779       0.0090019
          9907.56     0.008766248
         9916.347     0.008538522
         9925.138     0.008309864
         9933.936      0.00808185
         9942.747     0.007849038
         9951.566     0.007623643
         9960.393     0.007405806
         9969.228     0.007174672
         9978.064     0.006945957
          9986.91       0.0067268
         9995.769      0.00649923
         10004.63     0.006327983
          10013.5     0.006200231
         10022.39     0.006075055
         10031.27      0.00595096
         10040.17     0.005825019
         10049.08      0.00569972
         10057.99     0.005579913
          10066.9     0.005459713
         10075.84     0.005341133
         10084.77     0.005219164
         10093.72     0.005105732
         10102.67     0.004983128
         10111.62     0.004864333
         10120.58      0.00474943
         10129.57     0.004632949
         10138.55     0.004518015
         10147.55     0.004407112
         10156.53     0.004293153
         10165.54     0.004180326
         10174.55     0.004072794
         10183.59     0.003959993
         10192.61     0.003848669
         10201.66     0.003739478
          10210.7     0.003635393
         10219.75      0.00352645
         10228.81     0.003419464
         10237.89     0.003318026
         10246.97     0.003212547
         10256.05     0.003108867
         10265.15     0.003007813
         10274.25     0.002907353
         10283.36     0.002806076
         10292.49     0.002705343
         10301.61     0.002610341
         10310.74     0.002509658
         10319.89     0.002414285
         10329.04     0.002317769
          10338.2     0.002222951
         10347.37     0.002130744
         10356.55      0.00203916
         10365.73     0.001944693
         10374.93     0.001855082
         10384.12     0.001765006
         10393.34     0.001675382
         10402.55     0.001588107
         10411.77     0.001500025
           10421.      0.00141469
         10430.25     0.001330501
          10439.5     0.001246284
         10448.76     0.001163319
         10458.03     0.001081476
          10467.3     0.001000003
         10476.58     9.197500E-4
         10485.87     8.407888E-4
         10495.17     7.631490E-4
         10504.48     7.147883E-4
         10513.79     6.994442E-4
         10523.12     6.829615E-4
         10532.44     6.677555E-4
         10541.79     6.524364E-4
         10551.14     6.366717E-4
          10560.5     6.214808E-4
         10569.86     6.066515E-4
         10579.23     5.920617E-4
         10588.61     5.775519E-4
         10598.01     5.632525E-4
          10607.4     5.483802E-4
         10616.82     5.343835E-4
         10626.23     5.203813E-4
         10635.65     5.059582E-4
         10645.09     4.925298E-4
         10654.52     4.792386E-4
         10663.97     4.655306E-4
         10673.43     4.520703E-4
         10682.89     4.390209E-4
         10692.36     4.262123E-4
         10701.85     4.131841E-4
         10711.34     4.003083E-4
         10720.83     3.881721E-4
         10730.34     3.757615E-4
         10739.86     3.632114E-4
         10749.38     3.514931E-4
         10758.92     3.393998E-4
         10768.46     3.272386E-4
         10778.01     3.160156E-4
         10787.56     3.045518E-4
         10797.13     2.929850E-4
         10806.71     2.819361E-4
         10816.29     2.710991E-4
         10825.88     2.601306E-4
         10835.48     2.494587E-4
          10845.1     2.390512E-4
         10854.71     2.286436E-4
         10864.35     2.185367E-4
         10873.96     2.085021E-4
         10883.62     1.984788E-4
         10893.26     1.890656E-4
         10902.93     1.792837E-4
          10912.6     1.698863E-4
         10922.28     1.606814E-4
         10931.96     1.517074E-4
         10941.65     1.426525E-4
         10951.35     1.340707E-4
         10961.07     1.254297E-4
         10970.79     1.170079E-4
         10980.51     1.088412E-4
         10990.26     1.007146E-4
           11000.     9.276831E-5
