#  Table wf2f785lpsys.tab  Mon 12:21:53 02-Jun-97

#      WAVELENGTH      THROUGHPUT
#       angstroms                

            1870.              0.
         1871.658     1.256699E-9
         1873.318     2.524959E-9
         1874.979     3.806053E-9
         1876.642     5.099297E-9
         1878.306     6.403886E-9
         1879.972     7.718683E-9
         1881.639     7.769192E-9
         1883.308     7.797921E-9
         1884.978     7.826672E-9
          1886.65     7.855476E-9
         1888.322     7.884302E-9
         1889.997     7.913180E-9
         1891.674     7.942638E-9
          1893.35     7.972083E-9
          1895.03     8.001598E-9
          1896.71     8.031139E-9
         1898.392     8.060734E-9
         1900.077     8.152529E-9
         1901.761     9.550795E-9
         1903.447     1.096049E-8
         1905.135     1.238259E-8
         1906.824     1.381537E-8
         1908.516     1.526146E-8
         1910.209     1.671844E-8
         1911.903     1.818713E-8
         1913.597     1.966775E-8
         1915.295     2.116120E-8
         1916.993     2.266556E-8
         1918.694     2.418381E-8
         1920.396     2.470882E-8
         1922.098     2.191059E-8
         1923.802     1.908816E-8
         1925.508     1.623980E-8
         1927.216     1.336725E-8
         1928.926     1.047026E-8
         1930.637     8.099937E-9
         1932.347     6.645217E-9
         1934.061     5.176251E-9
         1935.778     3.693912E-9
         1937.494     2.200917E-9
         1939.212    6.943727E-10
         1940.931              0.
         1942.652              0.
         1944.376              0.
         1946.099              0.
         1947.826              0.
         1949.553              0.
         1951.281     1.159264E-9
         1953.012     2.735101E-9
         1954.745     4.324126E-9
         1956.477     5.925357E-9
         1958.213     7.540860E-9
          1959.95     9.169435E-9
         1961.687     7.689704E-9
         1963.427     6.102784E-9
         1965.169     4.502434E-9
         1966.911     2.889637E-9
         1968.655     1.262435E-9
         1970.401              0.
         1972.148              0.
         1973.897              0.
         1975.648              0.
           1977.4              0.
         1979.153              0.
         1980.909              0.
         1982.665              0.
         1984.423              0.
         1986.184              0.
         1987.944              0.
         1989.709              0.
         1991.473              0.
         1993.238              0.
         1995.006              0.
         1996.774              0.
         1998.547              0.
         2000.319              0.
         2002.091              0.
         2003.867              0.
         2005.645              0.
         2007.423              0.
         2009.204              0.
         2010.985              0.
         2012.768              0.
         2014.553              0.
         2016.341              0.
         2018.128              0.
         2019.919              0.
         2021.709              0.
         2023.501              0.
         2025.297              0.
         2027.094              0.
         2028.891              0.
          2030.69              0.
          2032.49              0.
         2034.293              0.
         2036.097              0.
         2037.903              0.
          2039.71              0.
         2041.519              0.
          2043.33              0.
         2045.141              0.
         2046.955              0.
         2048.771              0.
         2050.587              0.
         2052.406              0.
         2054.225              0.
         2056.047              0.
         2057.871              0.
         2059.695              0.
         2061.522              0.
         2063.351              0.
          2065.18              0.
         2067.011              0.
         2068.845              0.
          2070.68              0.
         2072.516              0.
         2074.354              0.
         2076.193              0.
         2078.034              0.
         2079.879              0.
         2081.722              0.
         2083.568              0.
         2085.416              0.
         2087.264              0.
         2089.117              0.
          2090.97              0.
         2092.822              0.
         2094.679              0.
         2096.535              0.
         2098.395              0.
         2100.258              0.
         2102.119              0.
         2103.983              0.
         2105.849              0.
         2107.716              0.
         2109.586              0.
         2111.458              0.
         2113.329              0.
         2115.202              0.
         2117.079              0.
         2118.957              0.
         2120.836              0.
         2122.717              0.
         2124.599              0.
         2126.482              0.
         2128.368              0.
         2130.256              0.
         2132.146              0.
         2134.037              0.
         2135.927              0.
         2137.822              0.
         2139.718              0.
         2141.616              0.
         2143.516              0.
         2145.416              0.
         2147.318              0.
         2149.224              0.
         2151.129              0.
         2153.037              0.
         2154.947              0.
         2156.857              0.
          2158.77              0.
         2160.685              0.
           2162.6              0.
         2164.518              0.
         2166.438              0.
         2168.359              0.
         2170.282              0.
         2172.207              0.
         2174.132              0.
         2176.061              0.
         2177.991              0.
         2179.922              0.
         2181.855              0.
         2183.791              0.
         2185.726              0.
         2187.666              0.
         2189.605              0.
         2191.547              0.
          2193.49              0.
         2195.436              0.
         2197.383              0.
         2199.333              0.
         2201.282              0.
         2203.233              0.
         2205.188              0.
         2207.144              0.
         2209.101              0.
         2211.061              0.
         2213.021              0.
         2214.982              0.
         2216.948              0.
         2218.914              0.
         2220.882              0.
          2222.85              0.
         2224.821              0.
         2226.795              0.
         2228.771              0.
         2230.746              0.
         2232.725              0.
         2234.703              0.
         2236.686              0.
          2238.67              0.
         2240.656              0.
         2242.642              0.
         2244.631              0.
         2246.622              0.
         2248.614              0.
         2250.608              0.
         2252.605              0.
         2254.602              0.
         2256.601              0.
         2258.603              0.
         2260.605              0.
          2262.61              0.
         2264.617              0.
         2266.625              0.
         2268.635              0.
         2270.646              0.
          2272.66              0.
         2274.676              0.
         2276.692              0.
         2278.712              0.
         2280.733              0.
         2282.755              0.
          2284.78              0.
         2286.806              0.
         2288.834              0.
         2290.863              0.
         2292.895              0.
         2294.928              0.
         2296.963              0.
         2299.002              0.
          2301.04              0.
          2303.08              0.
         2305.123              0.
         2307.166              0.
         2309.212              0.
         2311.262              0.
          2313.31              0.
         2315.361              0.
         2317.414              0.
         2319.469              0.
         2321.528              0.
         2323.587              0.
         2325.646              0.
         2327.708              0.
         2329.772              0.
          2331.84              0.
         2333.907              0.
         2335.978              0.
         2338.048              0.
         2340.121              0.
         2342.197              0.
         2344.274              0.
         2346.354              0.
         2348.434              0.
         2350.516              0.
           2352.6              0.
         2354.687              0.
         2356.776              0.
         2358.865              0.
         2360.957              0.
         2363.052              0.
         2365.146              0.
         2367.244              0.
         2369.344              0.
         2371.444              0.
         2373.547              0.
         2375.653              0.
         2377.759              0.
         2379.868              0.
         2381.979              0.
          2384.09              0.
         2386.205              0.
         2388.321              0.
         2390.438              0.
         2392.559              0.
         2394.682              0.
         2396.804              0.
          2398.93              0.
         2401.058              0.
         2403.186              0.
         2405.319              0.
         2407.451              0.
         2409.585              0.
         2411.722              0.
         2413.862              0.
         2416.003              0.
         2418.146              0.
         2420.289              0.
         2422.435              0.
         2424.583              0.
         2426.734              0.
         2428.886              0.
         2431.041              0.
         2433.196              0.
         2435.353              0.
         2437.514              0.
         2439.675              0.
         2441.839              0.
         2444.005              0.
         2446.171              0.
         2448.341              0.
         2450.513              0.
         2452.685              0.
          2454.86              0.
         2457.038              0.
         2459.216              0.
         2461.397              0.
         2463.581              0.
         2465.764              0.
         2467.951              0.
          2470.14              0.
          2472.33              0.
         2474.523              0.
         2476.718              0.
         2478.913              0.
         2481.112              0.
         2483.312              0.
         2485.514              0.
         2487.719              0.
         2489.926              0.
         2492.133              0.
         2494.343              0.
         2496.556              0.
         2498.769              0.
         2500.985              0.
         2503.203              0.
         2505.422              0.
         2507.645              0.
         2509.868              0.
         2512.094              0.
         2514.322              0.
         2516.552              0.
         2518.783              0.
         2521.016              0.
         2523.253              0.
          2525.49              0.
          2527.73              0.
         2529.972              0.
         2532.215              0.
         2534.461              0.
         2536.708              0.
         2538.958              0.
         2541.211              0.
         2543.464              0.
         2545.718              0.
         2547.975              0.
         2550.235              0.
         2552.499              0.
         2554.762              0.
         2557.026              0.
         2559.294              0.
         2561.563              0.
         2563.836              0.
          2566.11              0.
         2568.386              0.
         2570.662              0.
         2572.942              0.
         2575.225              0.
         2577.508              0.
         2579.794              0.
         2582.081              0.
          2584.37              0.
         2586.664              0.
         2588.957              0.
         2591.253              0.
          2593.55              0.
         2595.852              0.
         2598.153              0.
         2600.456              0.
         2602.763              0.
         2605.072              0.
         2607.382              0.
         2609.693              0.
         2612.008              0.
         2614.324              0.
         2616.643              0.
         2618.963              0.
         2621.285              0.
          2623.61              0.
         2625.937              0.
         2628.265              0.
         2630.596              0.
         2632.931              0.
         2635.263              0.
         2637.601              0.
          2639.94              0.
         2642.281              0.
         2644.626              0.
          2646.97              0.
         2649.317              0.
         2651.667              0.
         2654.019              0.
         2656.373              0.
         2658.729              0.
         2661.086              0.
         2663.445              0.
         2665.807              0.
         2668.171              0.
         2670.538              0.
         2672.907              0.
         2675.276              0.
         2677.648              0.
         2680.024              0.
           2682.4              0.
         2684.779              0.
         2687.161              0.
         2689.543              0.
         2691.928              0.
         2694.314              0.
         2696.704              0.
         2699.096              0.
          2701.49              0.
         2703.885              0.
         2706.282              0.
         2708.684              0.
         2711.085              0.
          2713.49              0.
         2715.896              0.
         2718.304              0.
         2720.715              0.
         2723.128              0.
         2725.542              0.
          2727.96              0.
         2730.378              0.
           2732.8              0.
         2735.224              0.
          2737.65              0.
         2740.077              0.
         2742.507              0.
          2744.94              0.
         2747.373              0.
          2749.81              0.
         2752.249              0.
         2754.689              0.
         2757.132              0.
         2759.578              0.
         2762.024              0.
         2764.474              0.
         2766.926              0.
         2769.379              0.
         2771.835              0.
         2774.294              0.
         2776.753              0.
         2779.216              0.
         2781.681              0.
         2784.147              0.
         2786.616              0.
         2789.086              0.
         2791.561              0.
         2794.038              0.
         2796.515              0.
         2798.994              0.
         2801.475              0.
          2803.96              0.
         2806.448              0.
         2808.938              0.
         2811.428              0.
          2813.92              0.
         2816.416              0.
         2818.914              0.
         2821.414              0.
         2823.917              0.
          2826.42              0.
         2828.926              0.
         2831.437              0.
         2833.946              0.
          2836.46              0.
         2838.974              0.
         2841.491              0.
         2844.013              0.
         2846.534              0.
         2849.059              0.
         2851.586              0.
         2854.115              0.
         2856.645              0.
         2859.177              0.
         2861.714              0.
         2864.252              0.
         2866.792              0.
         2869.334              0.
         2871.879              0.
         2874.426              0.
         2876.974              0.
         2879.526              0.
         2882.079              0.
         2884.635              0.
         2887.194              0.
         2889.753              0.
         2892.316              0.
         2894.883              0.
         2897.448              0.
         2900.018              0.
          2902.59              0.
         2905.163              0.
         2907.742              0.
         2910.319              0.
         2912.899              0.
         2915.483              0.
         2918.069              0.
         2920.659              0.
         2923.246              0.
         2925.839              0.
         2928.433              0.
          2931.03              0.
          2933.63              0.
          2936.23              0.
         2938.836              0.
         2941.441              0.
         2944.049              0.
         2946.662              0.
         2949.274              0.
         2951.892              0.
         2954.508              0.
         2957.127              0.
          2959.75              0.
         2962.374              0.
         2965.001              0.
         2967.631              0.
         2970.264              0.
         2972.897              0.
         2975.532              0.
         2978.173              0.
         2980.813              0.
         2983.457              0.
         2986.103              0.
          2988.75              0.
         2991.401              0.
         2994.054              0.
         2996.708              0.
         2999.367              0.
         3002.027              0.
         3004.688              0.
         3007.353              0.
         3010.021              0.
         3012.689              0.
         3015.361              0.
         3018.036              0.
         3020.711              0.
         3023.391              0.
         3026.072              0.
         3028.755              0.
         3031.441              0.
          3034.13              0.
          3036.82              0.
         3039.513              0.
         3042.209              0.
         3044.908              0.
         3047.605              0.
          3050.31              0.
         3053.014              0.
          3055.72              0.
         3058.433              0.
         3061.144              0.
         3063.857              0.
         3066.576              0.
         3069.295              0.
         3072.019              0.
         3074.742              0.
         3077.468              0.
         3080.198              0.
         3082.928              0.
         3085.664              0.
         3088.399              0.
         3091.139              0.
         3093.879              0.
         3096.621              0.
          3099.37              0.
         3102.117              0.
         3104.871              0.
         3107.623              0.
         3110.377              0.
         3113.138              0.
         3115.898              0.
          3118.66              0.
         3121.428              0.
         3124.195              0.
         3126.964              0.
         3129.736              0.
         3132.514              0.
         3135.292              0.
         3138.073              0.
         3140.855              0.
         3143.639              0.
         3146.428              0.
         3149.219              0.
         3152.012              0.
         3154.806              0.
         3157.603              0.
         3160.403              0.
         3163.208              0.
         3166.012              0.
         3168.822              0.
         3171.631              0.
         3174.443              0.
         3177.257              0.
         3180.077              0.
         3182.897              0.
         3185.717              0.
         3188.545              0.
         3191.371              0.
           3194.2              0.
         3197.035              0.
         3199.869              0.
         3202.706              0.
         3205.546              0.
          3208.39              0.
         3211.237              0.
         3214.082              0.
         3216.935              0.
         3219.784              0.
          3222.64              0.
         3225.499              0.
         3228.358              0.
         3231.223              0.
         3234.088              0.
         3236.955              0.
         3239.827              0.
         3242.699              0.
         3245.577              0.
         3248.455              0.
         3251.334              0.
         3254.216              0.
         3257.103              0.
         3259.992              0.
         3262.883              0.
         3265.777              0.
         3268.672              0.
          3271.57              0.
         3274.474              0.
         3277.376              0.
         3280.283              0.
         3283.193              0.
         3286.103              0.
         3289.018              0.
         3291.935              0.
         3294.853              0.
         3297.778              0.
         3300.701              0.
         3303.627              0.
         3306.557              0.
          3309.49              0.
         3312.424              0.
         3315.362              0.
         3318.302              0.
         3321.244              0.
          3324.19              0.
         3327.138              0.
         3330.088              0.
         3333.042              0.
         3335.996              0.
         3338.955              0.
         3341.917              0.
         3344.881              0.
         3347.848              0.
         3350.816              0.
         3353.788              0.
         3356.761              0.
         3359.736              0.
         3362.718              0.
         3365.699              0.
         3368.683              0.
         3371.673              0.
         3374.661              0.
         3377.656              0.
         3380.651              0.
         3383.649              0.
         3386.649              0.
         3389.653              0.
         3392.659              0.
         3395.667              0.
         3398.678              0.
         3401.691              0.
         3404.708              0.
         3407.729              0.
         3410.749              0.
         3413.776              0.
         3416.802              0.
         3419.831              0.
         3422.867     1.134523E-8
         3425.901     2.338887E-8
         3428.938     3.547984E-8
         3431.981     3.188174E-8
         3435.023     1.981696E-8
         3438.068     7.704325E-9
         3441.116              0.
          3444.17              0.
         3447.225              0.
         3450.283     1.134435E-9
         3453.341     1.342737E-8
         3456.402     2.577035E-8
          3459.47     3.817739E-8
         3462.537     3.013490E-8
         3465.608     1.776164E-8
          3468.68     5.346697E-9
         3471.755              0.
         3474.836              0.
         3477.918              0.
         3481.001              0.
         3484.091              0.
         3487.179              0.
         3490.271              0.
         3493.364              0.
         3496.465              0.
         3499.564              0.
         3502.667              0.
         3505.775              0.
         3508.883              0.
         3511.993              0.
          3515.11              0.
         3518.226              0.
         3521.345              0.
         3524.469              0.
         3527.595              0.
         3530.724              0.
         3533.854              0.
          3536.99              0.
         3540.123              0.
         3543.263              0.
         3546.406              0.
          3549.55              0.
           3552.7              0.
          3555.85              0.
         3559.002              0.
          3562.16              0.
         3565.318              0.
         3568.482              0.
         3571.646     7.033668E-9
         3574.812     2.059932E-8
         3577.981     3.422322E-8
         3581.154     4.295492E-8
         3584.331     4.302796E-8
          3587.51     4.310114E-8
         3590.692     4.018619E-8
         3593.877     2.648098E-8
         3597.061     1.273314E-8
         3600.253              0.
         3603.445              0.
         3606.641              0.
          3609.84              0.
          3613.04              0.
         3616.245              0.
          3619.45              0.
         3622.661              0.
         3625.876              0.
          3629.09              0.
         3632.307              0.
         3635.527              0.
         3638.754              0.
         3641.979              0.
          3645.21              0.
         3648.443              0.
         3651.677              0.
         3654.916              0.
         3658.158              0.
         3661.401              0.
         3664.648              0.
         3667.899              0.
          3671.15              0.
         3674.407              0.
         3677.666              0.
         3680.928              0.
         3684.191              0.
         3687.459              0.
         3690.727              0.
         3694.001              0.
         3697.278              0.
         3700.555              0.
         3703.835              0.
         3707.123              0.
         3710.409              0.
         3713.702              0.
         3716.994              0.
         3720.291              0.
         3723.589              0.
         3726.892              0.
         3730.197              0.
         3733.504              0.
         3736.815              0.
         3740.128              0.
         3743.448              0.
         3746.766              0.
         3750.087              0.
         3753.416              0.
         3756.743              0.
         3760.073              0.
          3763.41              0.
         3766.746              0.
         3770.087              0.
         3773.429              0.
         3776.776              0.
         3780.126              0.
         3783.477              0.
         3786.833              0.
         3790.192              0.
         3793.552              0.
         3796.917              0.
         3800.282              0.
         3803.655              0.
         3807.027              0.
         3810.404              0.
         3813.784              0.
         3817.164              0.
          3820.55              0.
         3823.939              0.
         3827.329              0.
         3830.723              0.
         3834.119              0.
          3837.52              0.
         3840.922              0.
         3844.331              0.
         3847.739              0.
         3851.149              0.
         3854.567              0.
         3857.984              0.
         3861.404              0.
         3864.831              0.
         3868.257              0.
         3871.688              0.
         3875.123              0.
         3878.558              0.
         3881.998              0.
         3885.439              0.
         3888.885              0.
         3892.335              0.
         3895.787              0.
         3899.241              0.
         3902.697              0.
         3906.161              0.
         3909.624              0.
         3913.092              0.
         3916.562              0.
         3920.034              0.
         3923.513              0.
         3926.991              0.
         3930.472              0.
         3933.959              0.
         3937.448              0.
         3940.938              0.
         3944.432              0.
         3947.933              0.
         3951.432              0.
         3954.935              0.
         3958.445              0.
         3961.954              0.
         3965.469              0.
         3968.986              0.
         3972.504              0.
         3976.028              0.
         3979.552              0.
         3983.082              0.
         3986.617              0.
         3990.151              0.
          3993.69              0.
          3997.23              0.
         4000.776              0.
         4004.323              0.
         4007.874              0.
         4011.429              0.
         4014.985              0.
         4018.546              0.
         4022.111              0.
         4025.676              0.
         4029.249              0.
         4032.821              0.
         4036.396              0.
         4039.976              0.
          4043.56              0.
         4047.144              0.
         4050.731              0.
         4054.327              0.
         4057.921              0.
          4061.52              0.
         4065.123              0.
         4068.726              0.
         4072.337              0.
         4075.947              0.
          4079.56              0.
         4083.181              0.
         4086.801              0.
         4090.426              0.
         4094.054              0.
         4097.683              0.
         4101.317              0.
         4104.953              0.
         4108.594              0.
         4112.236              0.
         4115.886              0.
         4119.535              0.
         4123.186              0.
         4126.846              0.
         4130.504              0.
         4134.166              0.
         4137.834              0.
         4141.502              0.
         4145.176              0.
         4148.853              0.
         4152.531              0.
         4156.211              0.
         4159.898              0.
         4163.588              0.
         4167.281              0.
         4170.975              0.
         4174.675              0.
         4178.375              0.
         4182.084              0.
         4185.791              0.
         4189.504              0.
         4193.217              0.
         4196.937              0.
          4200.66              0.
         4204.385              0.
         4208.112              0.
         4211.845              0.
         4215.579              0.
         4219.318              0.
         4223.058              0.
         4226.806              0.
         4230.553              0.
         4234.303              0.
         4238.061              0.
         4241.818              0.
         4245.578              0.
         4249.346              0.
         4253.113              0.
         4256.886              0.
         4260.659              0.
         4264.438              0.
         4268.218              0.
         4272.004              0.
         4275.793              0.
         4279.584              0.
         4283.382              0.
         4287.179              0.
         4290.979              0.
         4294.788              0.
         4298.595              0.
         4302.408              0.
         4306.224              0.
         4310.042              0.
         4313.867              0.
          4317.69              0.
         4321.518              0.
         4325.351              0.
         4329.188              0.
         4333.025              0.
         4336.866              0.
         4340.715              0.
         4344.563              0.
         4348.417              0.
         4352.274              0.
         4356.132              0.
         4359.996              0.
         4363.863              0.
         4367.731              0.
         4371.605              0.
         4375.483              0.
         4379.362              0.
         4383.249              0.
         4387.134              0.
         4391.025     1.679325E-8
         4394.918     8.060792E-8
         4398.816     1.446207E-7
         4402.715     2.236041E-7
         4406.623     3.093910E-7
         4410.529     3.952837E-7
         4414.439     4.813845E-7
         4418.357     5.678053E-7
         4422.274     6.168613E-7
         4426.194     6.389073E-7
         4430.122     6.596906E-7
         4434.049     6.385793E-7
         4437.982     6.174026E-7
         4441.917     5.750470E-7
         4445.856     5.102546E-7
         4449.797     4.453423E-7
         4453.742     4.009534E-7
         4457.695     3.575190E-7
         4461.648     3.048818E-7
         4465.604     2.393619E-7
         4469.564     1.736417E-7
         4473.526     1.469504E-7
         4477.497     1.250077E-7
         4481.466     1.030385E-7
         4485.438     8.101851E-8
          4489.42     5.891239E-8
         4493.399     3.678239E-8
         4497.382     1.459865E-8
         4501.374              0.
         4505.364              0.
         4509.358              0.
         4513.358              0.
         4517.361              0.
         4521.366              0.
         4525.378              0.
          4529.39              0.
         4533.405              0.
         4537.426              0.
         4541.451              0.
         4545.477              0.
         4549.511              0.
         4553.544              0.
         4557.583              0.
         4561.625              0.
         4565.669              0.
         4569.716              0.
         4573.772              0.
         4577.826              0.
         4581.887              0.
         4585.951              0.
         4590.016              0.
         4594.085              0.
          4598.16              0.
         4602.238              0.
         4606.321              0.
         4610.406              0.
         4614.493              0.
         4618.583              0.
          4622.68              0.
         4626.781              0.
         4630.885              0.
         4634.992              0.
         4639.101              0.
         4643.216              0.
         4647.332              0.
         4651.454              0.
          4655.58              0.
         4659.709              0.
          4663.84              0.
         4667.977              0.
         4672.114              0.
         4676.258              0.
         4680.406              0.
         4684.558              0.
          4688.71              0.
         4692.869              0.
         4697.032              0.
         4701.195              0.
         4705.363              0.
         4709.539              0.
         4713.714              0.
         4717.895              0.
          4722.08              0.
         4726.266              0.
         4730.455              0.
         4734.653              0.
         4738.851              0.
         4743.054              0.
         4747.261              0.
         4751.469              0.
         4755.681              0.
         4759.902              0.
         4764.121              0.
         4768.347              0.
         4772.577              0.
         4776.807              0.
         4781.047              0.
         4785.285              0.
         4789.527              0.
         4793.775              0.
         4798.027              0.
          4802.28              0.
         4806.542              0.
         4810.803              0.
         4815.068              0.
         4819.339              0.
         4823.613              0.
         4827.889              0.
         4832.174              0.
         4836.458              0.
         4840.748              0.
         4845.039              0.
         4849.336              0.
         4853.635              0.
          4857.94              0.
         4862.249              0.
         4866.562              0.
         4870.876              0.
         4875.196              0.
         4879.518              0.
         4883.846              0.
         4888.178              0.
         4892.514              0.
         4896.853              0.
         4901.194              0.
         4905.539              0.
          4909.89              0.
         4914.245              0.
         4918.604              0.
         4922.967              0.
         4927.331              0.
         4931.698              0.
         4936.073              0.
         4940.451              0.
         4944.831              0.
         4949.219              0.
         4953.606              0.
         4957.998              0.
         4962.395              0.
         4966.797              0.
           4971.2              0.
         4975.612              0.
         4980.022              0.
         4984.439              0.
         4988.858              0.
         4993.283              0.
         4997.709              0.
         5002.145              0.
         5006.579              0.
          5011.02              0.
         5015.465              0.
         5019.911              0.
          5024.36              0.
          5028.82              0.
         5033.278              0.
         5037.742              0.
          5042.21              0.
          5046.68              0.
         5051.154              0.
         5055.637              0.
         5060.119              0.
         5064.607              0.
         5069.099              0.
         5073.593              0.
          5078.09              0.
         5082.594              0.
         5087.103              0.
         5091.615              0.
         5096.131              0.
         5100.648              0.
         5105.175              0.
         5109.698              0.
          5114.23              0.
         5118.767              0.
         5123.307              0.
         5127.849              0.
           5132.4              0.
         5136.946              0.
         5141.503              0.
         5146.063              0.
         5150.628              0.
         5155.194              0.
         5159.766              0.
         5164.343              0.
         5168.921              0.
         5173.503              0.
         5178.095              0.
         5182.685              0.
         5187.282              0.
         5191.883              0.
         5196.485              0.
         5201.091              0.
         5205.708              0.
         5210.322              0.
         5214.944              0.
         5219.569              0.
         5224.196              0.
         5228.827              0.
         5233.468              0.
         5238.107              0.
         5242.753              0.
         5247.404              0.
         5252.055              0.
         5256.717              0.
         5261.376              0.
         5266.041              0.
         5270.711              0.
         5275.386              0.
         5280.063              0.
         5284.749              0.
         5289.434              0.
         5294.123              0.
         5298.818              0.
         5303.519              0.
          5308.22              0.
         5312.931              0.
         5317.641              0.
         5322.354              0.
         5327.075              0.
           5331.8              0.
         5336.527              0.
         5341.263              0.
         5345.998              0.
          5350.74              0.
         5355.483              0.
         5360.233              0.
         5364.985              0.
         5369.743              0.
         5374.506              0.
         5379.273              0.
         5384.045              0.
         5388.817              0.
         5393.594              0.
         5398.378              0.
         5403.167              0.
         5407.959              0.
         5412.756              0.
         5417.554              0.
         5422.356              0.
         5427.166              0.
          5431.98              0.
         5436.798              0.
         5441.621              0.
         5446.444              0.
         5451.272              0.
         5456.107              0.
         5460.947              0.
         5465.788              0.
         5470.639              0.
         5475.488              0.
         5480.345              0.
         5485.203              0.
         5490.068              0.
         5494.935              0.
         5499.812              0.
         5504.688              0.
          5509.57              0.
         5514.457              0.
         5519.345              0.
         5524.238              0.
         5529.141              0.
         5534.042              0.
         5538.951              0.
         5543.864              0.
         5548.778              0.
         5553.697              0.
         5558.626              0.
         5563.554              0.
         5568.488              0.
         5573.428              0.
         5578.368              0.
         5583.313              0.
         5588.265              0.
         5593.222              0.
         5598.183              0.
         5603.149              0.
         5608.116              0.
         5613.093              0.
         5618.066              0.
         5623.049              0.
         5628.037              0.
         5633.029              0.
         5638.022              0.
         5643.026              0.
         5648.025              0.
         5653.035              0.
         5658.049              0.
         5663.068              0.
         5668.088              0.
         5673.119              0.
         5678.147              0.
         5683.181              0.
         5688.222              0.
         5693.267              0.
         5698.314              0.
         5703.368              0.
         5708.427              0.
          5713.49              0.
         5718.552              0.
         5723.627              0.
         5728.701              0.
         5733.782              0.
         5738.868              0.
         5743.956              0.
         5749.047              0.
          5754.15              0.
          5759.25              0.
         5764.359              0.
         5769.472              0.
         5774.586              0.
         5779.711              0.
         5784.834              0.
         5789.963              0.
         5795.098              0.
         5800.239              0.
          5805.38              0.
         5810.533              0.
         5815.684              0.
         5820.839              0.
         5826.001              0.
         5831.169              0.
         5836.338              0.
         5841.519              0.
         5846.697              0.
         5851.879              0.
          5857.07              0.
         5862.265              0.
         5867.461              0.
         5872.669              0.
         5877.875              0.
         5883.089              0.
         5888.304              0.
         5893.527              0.
         5898.751              0.
         5903.986              0.
          5909.22              0.
         5914.461              0.
         5919.708              0.
         5924.955              0.
         5930.207              0.
         5935.467              0.
         5940.732              0.
         5946.001              0.
         5951.275              0.
         5956.551              0.
         5961.831              0.
         5967.119              0.
         5972.412              0.
         5977.709              0.
         5983.012              0.
         5988.315              0.
         5993.624              0.
          5998.94              0.
         6004.261              0.
         6009.583              0.
         6014.917              0.
         6020.249              0.
         6025.592              0.
          6030.93              0.
          6036.28              0.
          6041.63              0.
         6046.993              0.
         6052.353              0.
         6057.721              0.
         6063.095              0.
         6068.469              0.
         6073.849              0.
         6079.239              0.
         6084.628              0.
         6090.025              0.
         6095.427              0.
         6100.831              0.
         6106.238              0.
         6111.658              0.
         6117.076              0.
         6122.501              0.
         6127.932              0.
         6133.364              0.
         6138.801              0.
          6144.25              0.
         6149.696              0.
         6155.151              0.
          6160.61              0.
         6166.071              0.
         6171.544              0.
         6177.011              0.
          6182.49              0.
         6187.974              0.
         6193.463              0.
         6198.953              0.
         6204.455              0.
         6209.951              0.
         6215.459              0.
         6220.973              0.
         6226.491              0.
          6232.01              0.
         6237.541              0.
          6243.07              0.
         6248.604              0.
         6254.147              0.
         6259.694              0.
         6265.243              0.
         6270.804              0.
         6276.363              0.
          6281.93              0.
         6287.495              0.
         6293.075              0.
         6298.654              0.
         6304.241              0.
         6309.833              0.
         6315.429              0.
         6321.024              0.
         6326.634              0.
         6332.243              0.
         6337.859              0.
         6343.481              0.
         6349.104              0.
         6354.739              0.
         6360.372              0.
          6366.01              0.
         6371.657              0.
         6377.309              0.
         6382.962              0.
         6388.627              0.
          6394.29              0.
         6399.958              0.
         6405.635              0.
         6411.317              0.
         6417.003              0.
         6422.695              0.
         6428.389              0.
         6434.087              0.
         6439.794              0.
         6445.506              0.
         6451.223              0.
         6456.945              0.
         6462.669              0.
         6468.401              0.
         6474.135              0.
         6479.878              0.
         6485.622              0.
         6491.375              0.
         6497.133              0.
         6502.896              0.
         6508.664              0.
         6514.433              0.
         6520.208              0.
         6525.991              0.
          6531.78              0.
         6537.573              0.
         6543.372              0.
         6549.172              0.
         6554.978              0.
         6560.792              0.
         6566.611              0.
         6572.436              0.
         6578.266              0.
         6584.097              0.
         6589.934              0.
         6595.779              0.
         6601.629              0.
         6607.485              0.
         6613.346              0.
         6619.208              0.
         6625.079              0.
         6630.952              0.
         6636.833              0.
          6642.72              0.
         6648.612              0.
         6654.506              0.
         6660.409              0.
         6666.316              0.
         6672.226              0.
         6678.144              0.
         6684.067              0.
         6689.992              0.
         6695.926              0.
         6701.866              0.
         6707.807              0.
         6713.756              0.
         6719.711              0.
         6725.668              0.
         6731.634              0.
         6737.604              0.
         6743.581              0.
         6749.555              0.
         6755.545              0.
         6761.534              0.
         6767.531              0.
         6773.534              0.
         6779.542              0.
         6785.556              0.
         6791.567              0.
         6797.591              0.
          6803.62              0.
         6809.655              0.
         6815.695              0.
         6821.737              0.
         6827.784              0.
          6833.84              0.
         6839.902              0.
         6845.969              0.
         6852.037              0.
         6858.115              0.
         6864.198              0.
         6870.283              0.
         6876.377              0.
         6882.476              0.
         6888.577              0.
         6894.687              0.
         6900.803              0.
         6906.924              0.
         6913.046              0.
         6919.178              0.
         6925.312              0.
         6931.454              0.
         6937.603              0.
         6943.756              0.
         6949.911              0.
         6956.076              0.
         6962.242              0.
         6968.417              0.
         6974.599              0.
         6980.785     9.685518E-9
         6986.977     8.595404E-8
          6993.17     1.229563E-7
          6999.37     1.227171E-7
         7005.578     1.223629E-7
         7011.792     1.219953E-7
         7018.011     1.216266E-7
         7024.236     1.212600E-7
         7030.463     1.208949E-7
         7036.695     1.205327E-7
         7042.937     1.201696E-7
         7049.184     1.198057E-7
         7055.436     1.194445E-7
         7061.694     1.190839E-7
         7067.954     1.187240E-7
         7074.219     1.683056E-7
         7080.494     2.360112E-7
         7086.774     2.352942E-7
         7093.061     2.704773E-7
         7099.352     3.432273E-7
         7105.645     3.497404E-7
         7111.948     3.713149E-7
         7118.252     4.432328E-7
         7124.566     4.620743E-7
         7130.885     4.708590E-7
         7137.207     5.420063E-7
         7143.537     6.128119E-7
         7149.874     6.832368E-7
         7156.215     8.240042E-7
         7162.559     9.653797E-7
         7168.908     1.105998E-6
         7175.267     1.245977E-6
         7181.631     1.403534E-6
         7188.001     1.613303E-6
         7194.377     1.821961E-6
         7200.754     2.037790E-6
         7207.138     2.314941E-6
          7213.53     2.629825E-6
         7219.929     2.974626E-6
         7226.333     3.456907E-6
         7232.742     3.938149E-6
         7239.154     4.416464E-6
         7245.571     5.074345E-6
         7251.998     5.800114E-6
          7258.43     6.617985E-6
         7264.868     7.641589E-6
         7271.313     8.755665E-6
         7277.758     9.973174E-6
         7284.213     1.150022E-5
          7290.67     1.319954E-5
         7297.137     1.501410E-5
         7303.609     1.727755E-5
         7310.088     1.989484E-5
         7316.568     2.269852E-5
         7323.058     2.606608E-5
         7329.553     3.006191E-5
          7336.05     3.434937E-5
         7342.558     3.933104E-5
          7349.07     4.535036E-5
         7355.585     5.173709E-5
         7362.109     5.898494E-5
         7368.639     6.791874E-5
         7375.171     7.743155E-5
         7381.713     8.811369E-5
          7388.26     1.016868E-4
          7394.81     1.158598E-4
         7401.369     1.314134E-4
         7407.934     1.514367E-4
         7414.504     1.722070E-4
         7421.077     1.945577E-4
          7427.66     2.235014E-4
         7434.244     2.534510E-4
         7440.838     2.853857E-4
         7447.438     3.272749E-4
         7454.044     3.701304E-4
         7460.655     4.150600E-4
         7467.265     4.737942E-4
         7473.888     5.337164E-4
         7480.518     5.960220E-4
         7487.153     6.780876E-4
         7493.794     7.609847E-4
         7500.441     8.462803E-4
         7507.085     9.575762E-4
         7513.744     0.001069662
         7520.409     0.001184349
         7527.079      0.00133267
         7533.756     0.001480711
         7540.438     0.001635029
         7547.123     0.001883716
         7553.813     0.001996073
         7560.513     0.002006224
         7567.219     0.002016283
         7573.927     0.002026246
         7580.645     0.002171485
         7587.369     0.002392079
         7594.099     0.002634932
         7600.831     0.002889561
         7607.572     0.003161784
         7614.316     0.003463097
          7621.07     0.003783136
          7627.83     0.004123151
         7634.596      0.00448796
         7641.363      0.00486609
         7648.141     0.005272198
         7654.921     0.005696569
          7661.71     0.006148739
         7668.506     0.006636121
         7675.309     0.007144051
         7682.116      0.00766858
         7688.926     0.008213559
         7695.742     0.008786886
         7702.568     0.009379909
           7709.4     0.009984612
         7716.238      0.01062779
         7723.083      0.01128991
         7729.929      0.01197553
         7736.781      0.01268171
         7743.644      0.01339031
         7750.512      0.01410829
         7757.387       0.0148416
         7764.267      0.01560755
          7771.15      0.01636551
         7778.039      0.01715943
         7784.938      0.01795632
         7791.843      0.01876695
         7798.754      0.01957508
         7805.672      0.02038708
         7812.591      0.02119718
         7819.521      0.02201363
         7826.452      0.02283086
         7833.394       0.0236739
         7840.342      0.02450328
         7847.297      0.02534758
         7854.253      0.02615247
          7861.22      0.02697085
         7868.192      0.02778144
         7875.167      0.02857581
         7882.152      0.02937191
          7889.14      0.03017092
         7896.137      0.03096968
         7903.141      0.03173145
         7910.151      0.03247126
         7917.163      0.03323389
         7924.181      0.03397262
          7931.21      0.03467064
         7938.245      0.03540279
         7945.286       0.0361068
         7952.333      0.03677473
         7959.383      0.03744856
         7966.438      0.03809509
         7973.504      0.03875997
         7980.577      0.03935434
         7987.656      0.03993715
         7994.741      0.04053183
         8001.828      0.04211926
         8008.929      0.04249637
         8016.024      0.04288654
         8023.135       0.0432579
         8030.251      0.04361935
         8037.374      0.04393229
         8044.499      0.04430129
         8051.634      0.04464053
         8058.776      0.04498617
         8065.919      0.04532624
         8073.074      0.04564335
         8080.235      0.04594084
         8087.397      0.04621723
         8094.571      0.04645032
          8101.75      0.04671788
         8108.933      0.04696197
         8116.125       0.0471728
         8123.324      0.04737339
         8130.525      0.04753144
         8137.736       0.0477386
         8144.955       0.0478758
         8152.179      0.04803057
         8159.406      0.04814751
         8166.643      0.04819896
         8173.882      0.04832835
         8181.132      0.04839135
         8188.389      0.04844745
         8195.652      0.04850529
         8202.922      0.04850728
         8210.193      0.04853676
         8217.471      0.04855039
          8224.76      0.04854802
         8232.055      0.04849422
         8239.356      0.04844352
         8246.665      0.04841221
         8253.971      0.04837745
         8261.292      0.04831588
          8268.62      0.04824591
         8275.954      0.04821692
         8283.295      0.04811734
         8290.642      0.04804886
         8297.991      0.04792773
         8305.347      0.04789254
         8312.714      0.04776099
         8320.087      0.04767132
         8327.462       0.0475313
         8334.854      0.04742633
         8342.241      0.04731087
         8349.642        0.047151
         8357.043      0.04717926
         8364.455      0.04719723
          8371.87      0.04725239
         8379.296      0.04726377
         8386.729      0.04726402
         8394.167      0.04727261
         8401.608      0.04731093
         8409.061      0.04726852
         8416.515      0.04723646
         8423.979      0.04720988
         8431.452      0.04722505
         8438.931      0.04718215
         8446.416      0.04713002
         8453.903      0.04708819
         8461.397      0.04705659
         8468.902       0.0470229
         8476.414      0.04694309
         8483.933      0.04692241
         8491.458      0.04685507
         8498.985      0.04681941
         8506.519       0.0466926
         8514.064      0.04665433
         8521.616      0.04656766
         8529.175      0.04650647
          8536.74      0.04640988
         8544.308      0.04630635
         8551.882      0.04622849
         8559.467      0.04608719
          8567.06      0.04602944
         8574.658      0.04590581
         8582.264       0.0458174
         8589.871      0.04567233
          8597.49      0.04556234
         8605.111       0.0454422
         8612.744      0.04534206
         8620.384      0.04520484
          8628.03      0.04506874
         8635.679      0.04494959
         8643.338      0.04479682
         8651.005      0.04464691
         8658.674      0.04452773
         8666.354      0.04433507
         8674.036      0.04424628
         8681.729      0.04404663
         8689.431      0.04389812
         8697.138      0.04370029
         8704.848      0.04357057
         8712.563      0.04339525
         8720.292      0.04321074
         8728.026      0.04305846
         8735.769      0.04291161
         8743.517       0.0426909
         8751.272      0.04253015
         8759.025      0.04233294
         8766.794      0.04217126
          8774.57      0.04197881
         8782.354      0.04175803
         8790.144      0.04158901
          8797.94      0.04141147
         8805.739      0.04119842
         8813.545      0.04098817
         8821.362      0.04081368
         8829.187       0.0406045
         8837.019      0.04041573
         8844.852      0.04018736
         8852.697      0.03996374
         8860.545      0.03975007
         8868.403      0.03953949
          8876.27      0.03930497
         8884.144      0.03908456
         8892.019      0.03888195
         8899.905      0.03865148
           8907.8       0.0383991
         8915.696      0.03819516
         8923.604      0.03797271
          8931.52      0.03774186
         8939.437      0.03748486
         8947.366      0.03726896
         8955.303       0.0370247
         8963.245      0.03677181
         8971.191      0.03652177
         8979.148      0.03627017
         8987.108      0.03602592
         8995.079      0.03576053
         9003.058      0.03552643
         9011.044      0.03531622
         9019.036      0.03507689
         9027.031      0.03484374
         9035.033      0.03462491
         9043.047      0.03437402
         9051.068      0.03417104
         9059.097      0.03393541
         9067.132      0.03368198
         9075.165      0.03343817
         9083.214      0.03323131
         9091.271      0.03296745
         9099.335      0.03274401
         9107.406      0.03250802
         9115.484      0.03226858
         9123.564      0.03199967
         9131.652      0.03175875
         9139.752      0.03151995
         9147.858      0.03124841
         9155.973      0.03099926
         9164.089      0.03074146
         9172.218      0.03051167
         9180.354      0.03020811
         9188.491      0.02996306
         9196.642      0.02970801
         9204.794      0.02945979
         9212.958      0.02916829
          9221.13      0.02890242
          9229.31      0.02867036
          9237.49      0.02838513
         9245.684      0.02811438
          9253.88      0.02782939
         9262.088      0.02754741
         9270.304      0.02729458
         9278.526       0.0270017
         9286.756      0.02671331
         9294.988      0.02644498
         9303.228      0.02613964
         9311.479      0.02585157
         9319.739      0.02557067
         9328.006       0.0252766
         9336.279      0.02499103
         9344.561      0.02468869
         9352.839      0.02437903
         9361.135      0.02411941
         9369.438      0.02381443
         9377.749      0.02353403
         9386.066      0.02318956
         9394.387      0.02292665
         9402.715      0.02260421
         9411.055       0.0223018
         9419.402      0.02197707
         9427.757      0.02167851
         9436.119      0.02138002
         9444.484      0.02105067
         9452.861      0.02075451
         9461.241      0.02042237
         9469.633      0.02010521
         9478.032      0.01980182
         9486.439      0.01946826
         9494.849      0.01914886
         9503.271      0.01886016
           9511.7      0.01865072
         9520.132      0.01839939
         9528.575      0.01815229
         9537.022      0.01792618
         9545.481      0.01769784
         9553.948      0.01746578
         9562.423      0.01721681
         9570.899      0.01697802
         9579.389      0.01676702
          9587.88      0.01653287
         9596.385      0.01628218
         9604.896      0.01606146
         9613.416      0.01583972
         9621.943      0.01560134
         9630.467      0.01536562
         9639.009      0.01512533
         9647.559      0.01490725
         9656.116      0.01466808
         9664.681      0.01443844
         9673.254      0.01421323
         9681.834      0.01396194
         9690.411      0.01374591
         9699.006      0.01351702
         9707.609      0.01328274
          9716.22      0.01306232
         9724.838      0.01283297
         9733.459      0.01260067
         9742.087      0.01237693
         9750.728      0.01215076
         9759.377      0.01190534
         9768.033      0.01169052
         9776.697       0.0114548
         9785.364      0.01120927
         9794.044      0.01099477
         9802.726      0.01076377
          9811.42      0.01053348
         9820.123       0.0102951
         9828.828      0.01006836
         9837.546      0.00984925
         9846.272     0.009619108
         9855.006     0.009385927
         9863.741     0.009169916
          9872.49      0.00893851
         9881.242      0.00871383
         9890.007     0.008492754
         9898.779     0.008270606
          9907.56     0.008042498
         9916.347     0.007821709
         9925.138     0.007600113
         9933.936      0.00737915
         9942.747     0.007153851
         9951.566     0.006935368
         9960.393     0.006723792
         9969.228     0.006500189
         9978.064     0.006278858
          9986.91     0.006066218
         9995.769     0.005846039
         10004.63     0.005684108
          10013.5     0.005568194
         10022.39     0.005454603
         10031.27     0.005341996
         10040.17     0.005227742
         10049.08     0.005114075
         10057.99      0.00500535
          10066.9     0.004896283
         10075.84     0.004788678
         10084.77      0.00467805
         10093.72     0.004575083
         10102.67     0.004463912
         10111.62     0.004356167
         10120.58     0.004251922
         10129.57     0.004146275
         10138.55      0.00404203
         10147.55     0.003941402
         10156.53     0.003838059
         10165.54      0.00373574
         10174.55      0.00363817
         10183.59     0.003535906
         10192.61     0.003434981
         10201.66     0.003335975
          10210.7     0.003241542
         10219.75     0.003142795
         10228.81      0.00304581
         10237.89     0.002953783
         10246.97      0.00285818
         10256.05     0.002764196
         10265.15     0.002672566
         10274.25     0.002581486
         10283.36     0.002489701
         10292.49     0.002398421
         10301.61     0.002312245
         10310.74      0.00222106
         10319.89     0.002134598
         10329.04     0.002047154
          10338.2     0.001961236
         10347.37     0.001877644
         10356.55     0.001794631
         10365.73     0.001709111
         10374.93     0.001627888
         10384.12     0.001546291
         10393.34     0.001465122
         10402.55     0.001386045
         10411.77     0.001306303
           10421.     0.001228993
         10430.25     0.001152712
          10439.5     0.001076453
         10448.76     0.001001317
         10458.03     9.271998E-4
          10467.3     8.534530E-4
         10476.58     7.808065E-4
         10485.87     7.093129E-4
         10495.17     6.390023E-4
         10504.48     5.956977E-4
         10513.79     5.826686E-4
         10523.12     5.686947E-4
         10532.44     5.557875E-4
         10541.79     5.427895E-4
         10551.14     5.294248E-4
          10560.5     5.165409E-4
         10569.86     5.039619E-4
         10579.23     4.915854E-4
         10588.61     4.792793E-4
         10598.01     4.671514E-4
          10607.4     4.545528E-4
         10616.82     4.426841E-4
         10626.23     4.308154E-4
         10635.65     4.186028E-4
         10645.09     4.072174E-4
         10654.52     3.959500E-4
         10663.97     3.843429E-4
         10673.43     3.729449E-4
         10682.89     3.618913E-4
         10692.36     3.510409E-4
         10701.85     3.400144E-4
         10711.34     3.291193E-4
         10720.83     3.188374E-4
         10730.34     3.083352E-4
         10739.86     2.977242E-4
         10749.38     2.878011E-4
         10758.92     2.775765E-4
         10768.46     2.673032E-4
         10778.01     2.578027E-4
         10787.56     2.481118E-4
         10797.13     2.383435E-4
         10806.71     2.290042E-4
         10816.29     2.198436E-4
         10825.88     2.105833E-4
         10835.48     2.015713E-4
          10845.1     1.927802E-4
         10854.71     1.839975E-4
         10864.35     1.754647E-4
         10873.96     1.669994E-4
         10883.62     1.585515E-4
         10893.26     1.506006E-4
         10902.93     1.423652E-4
          10912.6     1.344465E-4
         10922.28     1.266902E-4
         10931.96     1.191274E-4
         10941.65     1.115133E-4
         10951.35     1.042813E-4
         10961.07     9.701537E-5
         10970.79     8.993391E-5
         10980.51     8.306298E-5
         10990.26     7.623730E-5
           11000.     6.956647E-5
