#  Table wf4f785lpsys.tab  Mon 12:22:53 02-Jun-97

#      WAVELENGTH      THROUGHPUT
#       angstroms                

            1870.              0.
         1871.658     1.175068E-9
         1873.318     2.361251E-9
         1874.979     3.559742E-9
         1876.642     4.769909E-9
         1878.306     5.991001E-9
         1879.972     7.221888E-9
         1881.639     7.269964E-9
         1883.308     7.297670E-9
         1884.978     7.325403E-9
          1886.65     7.353195E-9
         1888.322     7.381016E-9
         1889.997     7.408896E-9
         1891.674     7.437325E-9
          1893.35     7.465751E-9
          1895.03     7.494252E-9
          1896.71     7.522784E-9
         1898.392     7.551376E-9
         1900.077     7.638254E-9
         1901.761     8.949352E-9
         1903.447     1.027147E-8
         1905.135     1.160552E-8
         1906.824     1.294990E-8
         1908.516     1.430708E-8
         1910.209     1.567478E-8
         1911.903     1.705379E-8
         1913.597     1.844432E-8
         1915.295     1.984722E-8
         1916.993     2.126069E-8
         1918.694     2.268754E-8
         1920.396     2.318282E-8
         1922.098     2.055987E-8
         1923.802     1.791358E-8
         1925.508     1.524232E-8
         1927.216     1.254773E-8
         1928.926     9.829535E-9
         1930.637     7.605179E-9
         1932.347     6.240074E-9
         1934.061     4.861259E-9
         1935.778     3.469549E-9
         1937.494     2.067490E-9
         1939.212    6.523572E-10
         1940.931              0.
         1942.652              0.
         1944.376              0.
         1946.099              0.
         1947.826              0.
         1949.553              0.
         1951.281     1.090064E-9
         1953.012     2.572157E-9
         1954.745     4.067027E-9
         1956.477     5.573755E-9
         1958.213     7.094294E-9
          1959.95     8.627517E-9
         1961.687     7.236157E-9
         1963.427     5.743567E-9
         1965.169     4.237956E-9
         1966.911     2.720244E-9
         1968.655     1.188582E-9
         1970.401              0.
         1972.148              0.
         1973.897              0.
         1975.648              0.
           1977.4              0.
         1979.153              0.
         1980.909              0.
         1982.665              0.
         1984.423              0.
         1986.184              0.
         1987.944              0.
         1989.709              0.
         1991.473              0.
         1993.238              0.
         1995.006              0.
         1996.774              0.
         1998.547              0.
         2000.319              0.
         2002.091              0.
         2003.867              0.
         2005.645              0.
         2007.423              0.
         2009.204              0.
         2010.985              0.
         2012.768              0.
         2014.553              0.
         2016.341              0.
         2018.128              0.
         2019.919              0.
         2021.709              0.
         2023.501              0.
         2025.297              0.
         2027.094              0.
         2028.891              0.
          2030.69              0.
          2032.49              0.
         2034.293              0.
         2036.097              0.
         2037.903              0.
          2039.71              0.
         2041.519              0.
          2043.33              0.
         2045.141              0.
         2046.955              0.
         2048.771              0.
         2050.587              0.
         2052.406              0.
         2054.225              0.
         2056.047              0.
         2057.871              0.
         2059.695              0.
         2061.522              0.
         2063.351              0.
          2065.18              0.
         2067.011              0.
         2068.845              0.
          2070.68              0.
         2072.516              0.
         2074.354              0.
         2076.193              0.
         2078.034              0.
         2079.879              0.
         2081.722              0.
         2083.568              0.
         2085.416              0.
         2087.264              0.
         2089.117              0.
          2090.97              0.
         2092.822              0.
         2094.679              0.
         2096.535              0.
         2098.395              0.
         2100.258              0.
         2102.119              0.
         2103.983              0.
         2105.849              0.
         2107.716              0.
         2109.586              0.
         2111.458              0.
         2113.329              0.
         2115.202              0.
         2117.079              0.
         2118.957              0.
         2120.836              0.
         2122.717              0.
         2124.599              0.
         2126.482              0.
         2128.368              0.
         2130.256              0.
         2132.146              0.
         2134.037              0.
         2135.927              0.
         2137.822              0.
         2139.718              0.
         2141.616              0.
         2143.516              0.
         2145.416              0.
         2147.318              0.
         2149.224              0.
         2151.129              0.
         2153.037              0.
         2154.947              0.
         2156.857              0.
          2158.77              0.
         2160.685              0.
           2162.6              0.
         2164.518              0.
         2166.438              0.
         2168.359              0.
         2170.282              0.
         2172.207              0.
         2174.132              0.
         2176.061              0.
         2177.991              0.
         2179.922              0.
         2181.855              0.
         2183.791              0.
         2185.726              0.
         2187.666              0.
         2189.605              0.
         2191.547              0.
          2193.49              0.
         2195.436              0.
         2197.383              0.
         2199.333              0.
         2201.282              0.
         2203.233              0.
         2205.188              0.
         2207.144              0.
         2209.101              0.
         2211.061              0.
         2213.021              0.
         2214.982              0.
         2216.948              0.
         2218.914              0.
         2220.882              0.
          2222.85              0.
         2224.821              0.
         2226.795              0.
         2228.771              0.
         2230.746              0.
         2232.725              0.
         2234.703              0.
         2236.686              0.
          2238.67              0.
         2240.656              0.
         2242.642              0.
         2244.631              0.
         2246.622              0.
         2248.614              0.
         2250.608              0.
         2252.605              0.
         2254.602              0.
         2256.601              0.
         2258.603              0.
         2260.605              0.
          2262.61              0.
         2264.617              0.
         2266.625              0.
         2268.635              0.
         2270.646              0.
          2272.66              0.
         2274.676              0.
         2276.692              0.
         2278.712              0.
         2280.733              0.
         2282.755              0.
          2284.78              0.
         2286.806              0.
         2288.834              0.
         2290.863              0.
         2292.895              0.
         2294.928              0.
         2296.963              0.
         2299.002              0.
          2301.04              0.
          2303.08              0.
         2305.123              0.
         2307.166              0.
         2309.212              0.
         2311.262              0.
          2313.31              0.
         2315.361              0.
         2317.414              0.
         2319.469              0.
         2321.528              0.
         2323.587              0.
         2325.646              0.
         2327.708              0.
         2329.772              0.
          2331.84              0.
         2333.907              0.
         2335.978              0.
         2338.048              0.
         2340.121              0.
         2342.197              0.
         2344.274              0.
         2346.354              0.
         2348.434              0.
         2350.516              0.
           2352.6              0.
         2354.687              0.
         2356.776              0.
         2358.865              0.
         2360.957              0.
         2363.052              0.
         2365.146              0.
         2367.244              0.
         2369.344              0.
         2371.444              0.
         2373.547              0.
         2375.653              0.
         2377.759              0.
         2379.868              0.
         2381.979              0.
          2384.09              0.
         2386.205              0.
         2388.321              0.
         2390.438              0.
         2392.559              0.
         2394.682              0.
         2396.804              0.
          2398.93              0.
         2401.058              0.
         2403.186              0.
         2405.319              0.
         2407.451              0.
         2409.585              0.
         2411.722              0.
         2413.862              0.
         2416.003              0.
         2418.146              0.
         2420.289              0.
         2422.435              0.
         2424.583              0.
         2426.734              0.
         2428.886              0.
         2431.041              0.
         2433.196              0.
         2435.353              0.
         2437.514              0.
         2439.675              0.
         2441.839              0.
         2444.005              0.
         2446.171              0.
         2448.341              0.
         2450.513              0.
         2452.685              0.
          2454.86              0.
         2457.038              0.
         2459.216              0.
         2461.397              0.
         2463.581              0.
         2465.764              0.
         2467.951              0.
          2470.14              0.
          2472.33              0.
         2474.523              0.
         2476.718              0.
         2478.913              0.
         2481.112              0.
         2483.312              0.
         2485.514              0.
         2487.719              0.
         2489.926              0.
         2492.133              0.
         2494.343              0.
         2496.556              0.
         2498.769              0.
         2500.985              0.
         2503.203              0.
         2505.422              0.
         2507.645              0.
         2509.868              0.
         2512.094              0.
         2514.322              0.
         2516.552              0.
         2518.783              0.
         2521.016              0.
         2523.253              0.
          2525.49              0.
          2527.73              0.
         2529.972              0.
         2532.215              0.
         2534.461              0.
         2536.708              0.
         2538.958              0.
         2541.211              0.
         2543.464              0.
         2545.718              0.
         2547.975              0.
         2550.235              0.
         2552.499              0.
         2554.762              0.
         2557.026              0.
         2559.294              0.
         2561.563              0.
         2563.836              0.
          2566.11              0.
         2568.386              0.
         2570.662              0.
         2572.942              0.
         2575.225              0.
         2577.508              0.
         2579.794              0.
         2582.081              0.
          2584.37              0.
         2586.664              0.
         2588.957              0.
         2591.253              0.
          2593.55              0.
         2595.852              0.
         2598.153              0.
         2600.456              0.
         2602.763              0.
         2605.072              0.
         2607.382              0.
         2609.693              0.
         2612.008              0.
         2614.324              0.
         2616.643              0.
         2618.963              0.
         2621.285              0.
          2623.61              0.
         2625.937              0.
         2628.265              0.
         2630.596              0.
         2632.931              0.
         2635.263              0.
         2637.601              0.
          2639.94              0.
         2642.281              0.
         2644.626              0.
          2646.97              0.
         2649.317              0.
         2651.667              0.
         2654.019              0.
         2656.373              0.
         2658.729              0.
         2661.086              0.
         2663.445              0.
         2665.807              0.
         2668.171              0.
         2670.538              0.
         2672.907              0.
         2675.276              0.
         2677.648              0.
         2680.024              0.
           2682.4              0.
         2684.779              0.
         2687.161              0.
         2689.543              0.
         2691.928              0.
         2694.314              0.
         2696.704              0.
         2699.096              0.
          2701.49              0.
         2703.885              0.
         2706.282              0.
         2708.684              0.
         2711.085              0.
          2713.49              0.
         2715.896              0.
         2718.304              0.
         2720.715              0.
         2723.128              0.
         2725.542              0.
          2727.96              0.
         2730.378              0.
           2732.8              0.
         2735.224              0.
          2737.65              0.
         2740.077              0.
         2742.507              0.
          2744.94              0.
         2747.373              0.
          2749.81              0.
         2752.249              0.
         2754.689              0.
         2757.132              0.
         2759.578              0.
         2762.024              0.
         2764.474              0.
         2766.926              0.
         2769.379              0.
         2771.835              0.
         2774.294              0.
         2776.753              0.
         2779.216              0.
         2781.681              0.
         2784.147              0.
         2786.616              0.
         2789.086              0.
         2791.561              0.
         2794.038              0.
         2796.515              0.
         2798.994              0.
         2801.475              0.
          2803.96              0.
         2806.448              0.
         2808.938              0.
         2811.428              0.
          2813.92              0.
         2816.416              0.
         2818.914              0.
         2821.414              0.
         2823.917              0.
          2826.42              0.
         2828.926              0.
         2831.437              0.
         2833.946              0.
          2836.46              0.
         2838.974              0.
         2841.491              0.
         2844.013              0.
         2846.534              0.
         2849.059              0.
         2851.586              0.
         2854.115              0.
         2856.645              0.
         2859.177              0.
         2861.714              0.
         2864.252              0.
         2866.792              0.
         2869.334              0.
         2871.879              0.
         2874.426              0.
         2876.974              0.
         2879.526              0.
         2882.079              0.
         2884.635              0.
         2887.194              0.
         2889.753              0.
         2892.316              0.
         2894.883              0.
         2897.448              0.
         2900.018              0.
          2902.59              0.
         2905.163              0.
         2907.742              0.
         2910.319              0.
         2912.899              0.
         2915.483              0.
         2918.069              0.
         2920.659              0.
         2923.246              0.
         2925.839              0.
         2928.433              0.
          2931.03              0.
          2933.63              0.
          2936.23              0.
         2938.836              0.
         2941.441              0.
         2944.049              0.
         2946.662              0.
         2949.274              0.
         2951.892              0.
         2954.508              0.
         2957.127              0.
          2959.75              0.
         2962.374              0.
         2965.001              0.
         2967.631              0.
         2970.264              0.
         2972.897              0.
         2975.532              0.
         2978.173              0.
         2980.813              0.
         2983.457              0.
         2986.103              0.
          2988.75              0.
         2991.401              0.
         2994.054              0.
         2996.708              0.
         2999.367              0.
         3002.027              0.
         3004.688              0.
         3007.353              0.
         3010.021              0.
         3012.689              0.
         3015.361              0.
         3018.036              0.
         3020.711              0.
         3023.391              0.
         3026.072              0.
         3028.755              0.
         3031.441              0.
          3034.13              0.
          3036.82              0.
         3039.513              0.
         3042.209              0.
         3044.908              0.
         3047.605              0.
          3050.31              0.
         3053.014              0.
          3055.72              0.
         3058.433              0.
         3061.144              0.
         3063.857              0.
         3066.576              0.
         3069.295              0.
         3072.019              0.
         3074.742              0.
         3077.468              0.
         3080.198              0.
         3082.928              0.
         3085.664              0.
         3088.399              0.
         3091.139              0.
         3093.879              0.
         3096.621              0.
          3099.37              0.
         3102.117              0.
         3104.871              0.
         3107.623              0.
         3110.377              0.
         3113.138              0.
         3115.898              0.
          3118.66              0.
         3121.428              0.
         3124.195              0.
         3126.964              0.
         3129.736              0.
         3132.514              0.
         3135.292              0.
         3138.073              0.
         3140.855              0.
         3143.639              0.
         3146.428              0.
         3149.219              0.
         3152.012              0.
         3154.806              0.
         3157.603              0.
         3160.403              0.
         3163.208              0.
         3166.012              0.
         3168.822              0.
         3171.631              0.
         3174.443              0.
         3177.257              0.
         3180.077              0.
         3182.897              0.
         3185.717              0.
         3188.545              0.
         3191.371              0.
           3194.2              0.
         3197.035              0.
         3199.869              0.
         3202.706              0.
         3205.546              0.
          3208.39              0.
         3211.237              0.
         3214.082              0.
         3216.935              0.
         3219.784              0.
          3222.64              0.
         3225.499              0.
         3228.358              0.
         3231.223              0.
         3234.088              0.
         3236.955              0.
         3239.827              0.
         3242.699              0.
         3245.577              0.
         3248.455              0.
         3251.334              0.
         3254.216              0.
         3257.103              0.
         3259.992              0.
         3262.883              0.
         3265.777              0.
         3268.672              0.
          3271.57              0.
         3274.474              0.
         3277.376              0.
         3280.283              0.
         3283.193              0.
         3286.103              0.
         3289.018              0.
         3291.935              0.
         3294.853              0.
         3297.778              0.
         3300.701              0.
         3303.627              0.
         3306.557              0.
          3309.49              0.
         3312.424              0.
         3315.362              0.
         3318.302              0.
         3321.244              0.
          3324.19              0.
         3327.138              0.
         3330.088              0.
         3333.042              0.
         3335.996              0.
         3338.955              0.
         3341.917              0.
         3344.881              0.
         3347.848              0.
         3350.816              0.
         3353.788              0.
         3356.761              0.
         3359.736              0.
         3362.718              0.
         3365.699              0.
         3368.683              0.
         3371.673              0.
         3374.661              0.
         3377.656              0.
         3380.651              0.
         3383.649              0.
         3386.649              0.
         3389.653              0.
         3392.659              0.
         3395.667              0.
         3398.678              0.
         3401.691              0.
         3404.708              0.
         3407.729              0.
         3410.749              0.
         3413.776              0.
         3416.802              0.
         3419.831              0.
         3422.867     1.133670E-8
         3425.901     2.337229E-8
         3428.938     3.545623E-8
         3431.981     3.186191E-8
         3435.023     1.980550E-8
         3438.068     7.700200E-9
         3441.116              0.
          3444.17              0.
         3447.225              0.
         3450.283     1.134023E-9
         3453.341     1.342307E-8
         3456.402     2.576321E-8
          3459.47     3.816844E-8
         3462.537     3.012913E-8
         3465.608     1.775900E-8
          3468.68     5.346130E-9
         3471.755              0.
         3474.836              0.
         3477.918              0.
         3481.001              0.
         3484.091              0.
         3487.179              0.
         3490.271              0.
         3493.364              0.
         3496.465              0.
         3499.564              0.
         3502.667              0.
         3505.775              0.
         3508.883              0.
         3511.993              0.
          3515.11              0.
         3518.226              0.
         3521.345              0.
         3524.469              0.
         3527.595              0.
         3530.724              0.
         3533.854              0.
          3536.99              0.
         3540.123              0.
         3543.263              0.
         3546.406              0.
          3549.55              0.
           3552.7              0.
          3555.85              0.
         3559.002              0.
          3562.16              0.
         3565.318              0.
         3568.482              0.
         3571.646     7.042662E-9
         3574.812     2.062651E-8
         3577.981     3.426980E-8
         3581.154     4.301515E-8
         3584.331     4.309006E-8
          3587.51     4.316511E-8
         3590.692     4.024748E-8
         3593.877     2.652245E-8
         3597.061     1.275360E-8
         3600.253              0.
         3603.445              0.
         3606.641              0.
          3609.84              0.
          3613.04              0.
         3616.245              0.
          3619.45              0.
         3622.661              0.
         3625.876              0.
          3629.09              0.
         3632.307              0.
         3635.527              0.
         3638.754              0.
         3641.979              0.
          3645.21              0.
         3648.443              0.
         3651.677              0.
         3654.916              0.
         3658.158              0.
         3661.401              0.
         3664.648              0.
         3667.899              0.
          3671.15              0.
         3674.407              0.
         3677.666              0.
         3680.928              0.
         3684.191              0.
         3687.459              0.
         3690.727              0.
         3694.001              0.
         3697.278              0.
         3700.555              0.
         3703.835              0.
         3707.123              0.
         3710.409              0.
         3713.702              0.
         3716.994              0.
         3720.291              0.
         3723.589              0.
         3726.892              0.
         3730.197              0.
         3733.504              0.
         3736.815              0.
         3740.128              0.
         3743.448              0.
         3746.766              0.
         3750.087              0.
         3753.416              0.
         3756.743              0.
         3760.073              0.
          3763.41              0.
         3766.746              0.
         3770.087              0.
         3773.429              0.
         3776.776              0.
         3780.126              0.
         3783.477              0.
         3786.833              0.
         3790.192              0.
         3793.552              0.
         3796.917              0.
         3800.282              0.
         3803.655              0.
         3807.027              0.
         3810.404              0.
         3813.784              0.
         3817.164              0.
          3820.55              0.
         3823.939              0.
         3827.329              0.
         3830.723              0.
         3834.119              0.
          3837.52              0.
         3840.922              0.
         3844.331              0.
         3847.739              0.
         3851.149              0.
         3854.567              0.
         3857.984              0.
         3861.404              0.
         3864.831              0.
         3868.257              0.
         3871.688              0.
         3875.123              0.
         3878.558              0.
         3881.998              0.
         3885.439              0.
         3888.885              0.
         3892.335              0.
         3895.787              0.
         3899.241              0.
         3902.697              0.
         3906.161              0.
         3909.624              0.
         3913.092              0.
         3916.562              0.
         3920.034              0.
         3923.513              0.
         3926.991              0.
         3930.472              0.
         3933.959              0.
         3937.448              0.
         3940.938              0.
         3944.432              0.
         3947.933              0.
         3951.432              0.
         3954.935              0.
         3958.445              0.
         3961.954              0.
         3965.469              0.
         3968.986              0.
         3972.504              0.
         3976.028              0.
         3979.552              0.
         3983.082              0.
         3986.617              0.
         3990.151              0.
          3993.69              0.
          3997.23              0.
         4000.776              0.
         4004.323              0.
         4007.874              0.
         4011.429              0.
         4014.985              0.
         4018.546              0.
         4022.111              0.
         4025.676              0.
         4029.249              0.
         4032.821              0.
         4036.396              0.
         4039.976              0.
          4043.56              0.
         4047.144              0.
         4050.731              0.
         4054.327              0.
         4057.921              0.
          4061.52              0.
         4065.123              0.
         4068.726              0.
         4072.337              0.
         4075.947              0.
          4079.56              0.
         4083.181              0.
         4086.801              0.
         4090.426              0.
         4094.054              0.
         4097.683              0.
         4101.317              0.
         4104.953              0.
         4108.594              0.
         4112.236              0.
         4115.886              0.
         4119.535              0.
         4123.186              0.
         4126.846              0.
         4130.504              0.
         4134.166              0.
         4137.834              0.
         4141.502              0.
         4145.176              0.
         4148.853              0.
         4152.531              0.
         4156.211              0.
         4159.898              0.
         4163.588              0.
         4167.281              0.
         4170.975              0.
         4174.675              0.
         4178.375              0.
         4182.084              0.
         4185.791              0.
         4189.504              0.
         4193.217              0.
         4196.937              0.
          4200.66              0.
         4204.385              0.
         4208.112              0.
         4211.845              0.
         4215.579              0.
         4219.318              0.
         4223.058              0.
         4226.806              0.
         4230.553              0.
         4234.303              0.
         4238.061              0.
         4241.818              0.
         4245.578              0.
         4249.346              0.
         4253.113              0.
         4256.886              0.
         4260.659              0.
         4264.438              0.
         4268.218              0.
         4272.004              0.
         4275.793              0.
         4279.584              0.
         4283.382              0.
         4287.179              0.
         4290.979              0.
         4294.788              0.
         4298.595              0.
         4302.408              0.
         4306.224              0.
         4310.042              0.
         4313.867              0.
          4317.69              0.
         4321.518              0.
         4325.351              0.
         4329.188              0.
         4333.025              0.
         4336.866              0.
         4340.715              0.
         4344.563              0.
         4348.417              0.
         4352.274              0.
         4356.132              0.
         4359.996              0.
         4363.863              0.
         4367.731              0.
         4371.605              0.
         4375.483              0.
         4379.362              0.
         4383.249              0.
         4387.134              0.
         4391.025     1.687978E-8
         4394.918     8.102168E-8
         4398.816     1.453602E-7
         4402.715     2.247433E-7
         4406.623     3.109613E-7
         4410.529     3.972824E-7
         4414.439     4.838094E-7
         4418.357     5.706547E-7
         4422.274     6.199450E-7
         4426.194     6.420889E-7
         4430.122     6.629631E-7
         4434.049     6.417349E-7
         4437.982     6.204419E-7
         4441.917     5.778667E-7
         4445.856     5.127469E-7
         4449.797     4.475091E-7
         4453.742     4.028965E-7
         4457.695     3.592448E-7
         4461.648     3.063477E-7
         4465.604     2.405082E-7
         4469.564     1.744700E-7
         4473.526     1.476486E-7
         4477.497     1.255992E-7
         4481.466     1.035241E-7
         4485.438     8.139881E-8
          4489.42     5.918781E-8
         4493.399     3.695364E-8
         4497.382     1.466635E-8
         4501.374              0.
         4505.364              0.
         4509.358              0.
         4513.358              0.
         4517.361              0.
         4521.366              0.
         4525.378              0.
          4529.39              0.
         4533.405              0.
         4537.426              0.
         4541.451              0.
         4545.477              0.
         4549.511              0.
         4553.544              0.
         4557.583              0.
         4561.625              0.
         4565.669              0.
         4569.716              0.
         4573.772              0.
         4577.826              0.
         4581.887              0.
         4585.951              0.
         4590.016              0.
         4594.085              0.
          4598.16              0.
         4602.238              0.
         4606.321              0.
         4610.406              0.
         4614.493              0.
         4618.583              0.
          4622.68              0.
         4626.781              0.
         4630.885              0.
         4634.992              0.
         4639.101              0.
         4643.216              0.
         4647.332              0.
         4651.454              0.
          4655.58              0.
         4659.709              0.
          4663.84              0.
         4667.977              0.
         4672.114              0.
         4676.258              0.
         4680.406              0.
         4684.558              0.
          4688.71              0.
         4692.869              0.
         4697.032              0.
         4701.195              0.
         4705.363              0.
         4709.539              0.
         4713.714              0.
         4717.895              0.
          4722.08              0.
         4726.266              0.
         4730.455              0.
         4734.653              0.
         4738.851              0.
         4743.054              0.
         4747.261              0.
         4751.469              0.
         4755.681              0.
         4759.902              0.
         4764.121              0.
         4768.347              0.
         4772.577              0.
         4776.807              0.
         4781.047              0.
         4785.285              0.
         4789.527              0.
         4793.775              0.
         4798.027              0.
          4802.28              0.
         4806.542              0.
         4810.803              0.
         4815.068              0.
         4819.339              0.
         4823.613              0.
         4827.889              0.
         4832.174              0.
         4836.458              0.
         4840.748              0.
         4845.039              0.
         4849.336              0.
         4853.635              0.
          4857.94              0.
         4862.249              0.
         4866.562              0.
         4870.876              0.
         4875.196              0.
         4879.518              0.
         4883.846              0.
         4888.178              0.
         4892.514              0.
         4896.853              0.
         4901.194              0.
         4905.539              0.
          4909.89              0.
         4914.245              0.
         4918.604              0.
         4922.967              0.
         4927.331              0.
         4931.698              0.
         4936.073              0.
         4940.451              0.
         4944.831              0.
         4949.219              0.
         4953.606              0.
         4957.998              0.
         4962.395              0.
         4966.797              0.
           4971.2              0.
         4975.612              0.
         4980.022              0.
         4984.439              0.
         4988.858              0.
         4993.283              0.
         4997.709              0.
         5002.145              0.
         5006.579              0.
          5011.02              0.
         5015.465              0.
         5019.911              0.
          5024.36              0.
          5028.82              0.
         5033.278              0.
         5037.742              0.
          5042.21              0.
          5046.68              0.
         5051.154              0.
         5055.637              0.
         5060.119              0.
         5064.607              0.
         5069.099              0.
         5073.593              0.
          5078.09              0.
         5082.594              0.
         5087.103              0.
         5091.615              0.
         5096.131              0.
         5100.648              0.
         5105.175              0.
         5109.698              0.
          5114.23              0.
         5118.767              0.
         5123.307              0.
         5127.849              0.
           5132.4              0.
         5136.946              0.
         5141.503              0.
         5146.063              0.
         5150.628              0.
         5155.194              0.
         5159.766              0.
         5164.343              0.
         5168.921              0.
         5173.503              0.
         5178.095              0.
         5182.685              0.
         5187.282              0.
         5191.883              0.
         5196.485              0.
         5201.091              0.
         5205.708              0.
         5210.322              0.
         5214.944              0.
         5219.569              0.
         5224.196              0.
         5228.827              0.
         5233.468              0.
         5238.107              0.
         5242.753              0.
         5247.404              0.
         5252.055              0.
         5256.717              0.
         5261.376              0.
         5266.041              0.
         5270.711              0.
         5275.386              0.
         5280.063              0.
         5284.749              0.
         5289.434              0.
         5294.123              0.
         5298.818              0.
         5303.519              0.
          5308.22              0.
         5312.931              0.
         5317.641              0.
         5322.354              0.
         5327.075              0.
           5331.8              0.
         5336.527              0.
         5341.263              0.
         5345.998              0.
          5350.74              0.
         5355.483              0.
         5360.233              0.
         5364.985              0.
         5369.743              0.
         5374.506              0.
         5379.273              0.
         5384.045              0.
         5388.817              0.
         5393.594              0.
         5398.378              0.
         5403.167              0.
         5407.959              0.
         5412.756              0.
         5417.554              0.
         5422.356              0.
         5427.166              0.
          5431.98              0.
         5436.798              0.
         5441.621              0.
         5446.444              0.
         5451.272              0.
         5456.107              0.
         5460.947              0.
         5465.788              0.
         5470.639              0.
         5475.488              0.
         5480.345              0.
         5485.203              0.
         5490.068              0.
         5494.935              0.
         5499.812              0.
         5504.688              0.
          5509.57              0.
         5514.457              0.
         5519.345              0.
         5524.238              0.
         5529.141              0.
         5534.042              0.
         5538.951              0.
         5543.864              0.
         5548.778              0.
         5553.697              0.
         5558.626              0.
         5563.554              0.
         5568.488              0.
         5573.428              0.
         5578.368              0.
         5583.313              0.
         5588.265              0.
         5593.222              0.
         5598.183              0.
         5603.149              0.
         5608.116              0.
         5613.093              0.
         5618.066              0.
         5623.049              0.
         5628.037              0.
         5633.029              0.
         5638.022              0.
         5643.026              0.
         5648.025              0.
         5653.035              0.
         5658.049              0.
         5663.068              0.
         5668.088              0.
         5673.119              0.
         5678.147              0.
         5683.181              0.
         5688.222              0.
         5693.267              0.
         5698.314              0.
         5703.368              0.
         5708.427              0.
          5713.49              0.
         5718.552              0.
         5723.627              0.
         5728.701              0.
         5733.782              0.
         5738.868              0.
         5743.956              0.
         5749.047              0.
          5754.15              0.
          5759.25              0.
         5764.359              0.
         5769.472              0.
         5774.586              0.
         5779.711              0.
         5784.834              0.
         5789.963              0.
         5795.098              0.
         5800.239              0.
          5805.38              0.
         5810.533              0.
         5815.684              0.
         5820.839              0.
         5826.001              0.
         5831.169              0.
         5836.338              0.
         5841.519              0.
         5846.697              0.
         5851.879              0.
          5857.07              0.
         5862.265              0.
         5867.461              0.
         5872.669              0.
         5877.875              0.
         5883.089              0.
         5888.304              0.
         5893.527              0.
         5898.751              0.
         5903.986              0.
          5909.22              0.
         5914.461              0.
         5919.708              0.
         5924.955              0.
         5930.207              0.
         5935.467              0.
         5940.732              0.
         5946.001              0.
         5951.275              0.
         5956.551              0.
         5961.831              0.
         5967.119              0.
         5972.412              0.
         5977.709              0.
         5983.012              0.
         5988.315              0.
         5993.624              0.
          5998.94              0.
         6004.261              0.
         6009.583              0.
         6014.917              0.
         6020.249              0.
         6025.592              0.
          6030.93              0.
          6036.28              0.
          6041.63              0.
         6046.993              0.
         6052.353              0.
         6057.721              0.
         6063.095              0.
         6068.469              0.
         6073.849              0.
         6079.239              0.
         6084.628              0.
         6090.025              0.
         6095.427              0.
         6100.831              0.
         6106.238              0.
         6111.658              0.
         6117.076              0.
         6122.501              0.
         6127.932              0.
         6133.364              0.
         6138.801              0.
          6144.25              0.
         6149.696              0.
         6155.151              0.
          6160.61              0.
         6166.071              0.
         6171.544              0.
         6177.011              0.
          6182.49              0.
         6187.974              0.
         6193.463              0.
         6198.953              0.
         6204.455              0.
         6209.951              0.
         6215.459              0.
         6220.973              0.
         6226.491              0.
          6232.01              0.
         6237.541              0.
          6243.07              0.
         6248.604              0.
         6254.147              0.
         6259.694              0.
         6265.243              0.
         6270.804              0.
         6276.363              0.
          6281.93              0.
         6287.495              0.
         6293.075              0.
         6298.654              0.
         6304.241              0.
         6309.833              0.
         6315.429              0.
         6321.024              0.
         6326.634              0.
         6332.243              0.
         6337.859              0.
         6343.481              0.
         6349.104              0.
         6354.739              0.
         6360.372              0.
          6366.01              0.
         6371.657              0.
         6377.309              0.
         6382.962              0.
         6388.627              0.
          6394.29              0.
         6399.958              0.
         6405.635              0.
         6411.317              0.
         6417.003              0.
         6422.695              0.
         6428.389              0.
         6434.087              0.
         6439.794              0.
         6445.506              0.
         6451.223              0.
         6456.945              0.
         6462.669              0.
         6468.401              0.
         6474.135              0.
         6479.878              0.
         6485.622              0.
         6491.375              0.
         6497.133              0.
         6502.896              0.
         6508.664              0.
         6514.433              0.
         6520.208              0.
         6525.991              0.
          6531.78              0.
         6537.573              0.
         6543.372              0.
         6549.172              0.
         6554.978              0.
         6560.792              0.
         6566.611              0.
         6572.436              0.
         6578.266              0.
         6584.097              0.
         6589.934              0.
         6595.779              0.
         6601.629              0.
         6607.485              0.
         6613.346              0.
         6619.208              0.
         6625.079              0.
         6630.952              0.
         6636.833              0.
          6642.72              0.
         6648.612              0.
         6654.506              0.
         6660.409              0.
         6666.316              0.
         6672.226              0.
         6678.144              0.
         6684.067              0.
         6689.992              0.
         6695.926              0.
         6701.866              0.
         6707.807              0.
         6713.756              0.
         6719.711              0.
         6725.668              0.
         6731.634              0.
         6737.604              0.
         6743.581              0.
         6749.555              0.
         6755.545              0.
         6761.534              0.
         6767.531              0.
         6773.534              0.
         6779.542              0.
         6785.556              0.
         6791.567              0.
         6797.591              0.
          6803.62              0.
         6809.655              0.
         6815.695              0.
         6821.737              0.
         6827.784              0.
          6833.84              0.
         6839.902              0.
         6845.969              0.
         6852.037              0.
         6858.115              0.
         6864.198              0.
         6870.283              0.
         6876.377              0.
         6882.476              0.
         6888.577              0.
         6894.687              0.
         6900.803              0.
         6906.924              0.
         6913.046              0.
         6919.178              0.
         6925.312              0.
         6931.454              0.
         6937.603              0.
         6943.756              0.
         6949.911              0.
         6956.076              0.
         6962.242              0.
         6968.417              0.
         6974.599              0.
         6980.785     9.493657E-9
         6986.977     8.425027E-8
          6993.17     1.205175E-7
          6999.37     1.202815E-7
         7005.578     1.199397E-7
         7011.792     1.195855E-7
         7018.011     1.192303E-7
         7024.236     1.188771E-7
         7030.463     1.185253E-7
         7036.695     1.181763E-7
         7042.937     1.178264E-7
         7049.184     1.174757E-7
         7055.436     1.171276E-7
         7061.694     1.167802E-7
         7067.954     1.164334E-7
         7074.219     1.650671E-7
         7080.494     2.314821E-7
         7086.774     2.307911E-7
         7093.061     2.653151E-7
         7099.352     3.366946E-7
         7105.645     3.431020E-7
         7111.948     3.642866E-7
         7118.252     4.348666E-7
         7124.566     4.533770E-7
         7130.885     4.620213E-7
         7137.207     5.318621E-7
         7143.537     6.013753E-7
         7149.874     6.705225E-7
         7156.215     8.087147E-7
         7162.559     9.475191E-7
         7168.908     1.085596E-6
         7175.267     1.223060E-6
         7181.631     1.377795E-6
         7188.001     1.583805E-6
         7194.377     1.788748E-6
         7200.754     2.000755E-6
         7207.138     2.272996E-6
          7213.53     2.582319E-6
         7219.929     2.921057E-6
         7226.333     3.394845E-6
         7232.742     3.867667E-6
         7239.154     4.337667E-6
         7245.571     4.984095E-6
         7251.998     5.697281E-6
          7258.43     6.501024E-6
         7264.868     7.506970E-6
         7271.313     8.601916E-6
         7277.758     9.798613E-6
         7284.213     1.129958E-5
          7290.67     1.297002E-5
         7297.137     1.475389E-5
         7303.609     1.697910E-5
         7310.088     1.955233E-5
         7316.568     2.230905E-5
         7323.058     2.562034E-5
         7329.553     2.954960E-5
          7336.05     3.376600E-5
         7342.558     3.866537E-5
          7349.07     4.458547E-5
         7355.585     5.086754E-5
         7362.109     5.799707E-5
         7368.639     6.678527E-5
         7375.171     7.614393E-5
         7381.713     8.665370E-5
          7388.26     1.000080E-4
          7394.81     1.139540E-4
         7401.369     1.292596E-4
         7407.934     1.489639E-4
         7414.504     1.694055E-4
         7421.077     1.914045E-4
          7427.66     2.198927E-4
         7434.244     2.493742E-4
         7440.838     2.808127E-4
         7447.438     3.220509E-4
         7454.044     3.642452E-4
         7460.655     4.084861E-4
         7467.265     4.663194E-4
         7473.888     5.253296E-4
         7480.518     5.866933E-4
         7487.153     6.675171E-4
         7493.794     7.491698E-4
         7500.441     8.331984E-4
         7507.085     9.428988E-4
         7513.744     0.001053407
         7520.409     0.001166507
         7527.079     0.001312772
         7533.756       0.0014588
         7540.438     0.001611053
         7547.123     0.001856348
         7553.813     0.001967344
         7560.513     0.001977622
         7567.219     0.001987814
         7573.927     0.001997915
         7580.645     0.002141425
         7587.369     0.002359298
         7594.099     0.002599193
         7600.831     0.002850775
         7607.572     0.003119792
         7614.316     0.003417596
          7621.07     0.003733971
          7627.83      0.00407016
         7634.596     0.004430931
         7641.363     0.004804963
         7648.141     0.005206743
         7654.921     0.005626682
          7661.71     0.006074214
         7668.506     0.006556678
         7675.309     0.007059595
         7682.116     0.007579077
         7688.926     0.008118937
         7695.742     0.008686996
         7702.568     0.009274713
           7709.4      0.00987417
         7716.238      0.01051188
         7723.083      0.01116854
         7729.929      0.01184866
         7736.781      0.01254935
         7743.644      0.01325267
         7750.512      0.01396552
         7757.387      0.01469378
         7764.267      0.01545462
          7771.15      0.01620781
         7778.039      0.01699687
         7784.938      0.01778915
         7791.843      0.01859532
         7798.754      0.01939931
         7805.672      0.02020743
         7812.591      0.02101394
         7819.521      0.02182705
         7826.452      0.02264123
         7833.394       0.0234813
         7840.342      0.02430815
         7847.297      0.02515011
         7854.253      0.02595327
          7861.22      0.02677014
         7868.192      0.02757958
         7875.167      0.02837324
         7882.152      0.02916893
          7889.14      0.02996782
         7896.137      0.03076679
         7903.141      0.03152932
         7910.151      0.03227035
         7917.163      0.03303435
         7924.181      0.03377493
          7931.21      0.03447534
         7938.245      0.03520998
         7945.286      0.03591695
         7952.333      0.03658834
         7959.383      0.03726589
         7966.438      0.03791657
         7973.504      0.03858581
         7980.577      0.03918516
         7987.656      0.03977328
         7994.741      0.04037349
         8001.828       0.0419633
         8008.929      0.04234852
         8016.024      0.04274697
         8023.135      0.04312695
         8030.251      0.04349729
         8037.374      0.04381949
         8044.499      0.04419787
         8051.634      0.04454681
         8058.776       0.0449024
         8065.919      0.04525267
         8073.074      0.04558028
         8080.235      0.04588854
         8087.397      0.04617597
         8094.571      0.04642037
          8101.75      0.04669945
         8108.933      0.04695529
         8116.125       0.0471781
         8123.324      0.04739088
         8130.525      0.04756133
         8137.736      0.04778111
         8144.955      0.04793108
         8152.179      0.04809885
         8159.406       0.0482289
         8166.643      0.04829355
         8173.882      0.04843644
         8181.132      0.04851298
         8188.389      0.04858277
         8195.652      0.04865446
         8202.922      0.04867028
         8210.193      0.04871382
         8217.471      0.04874159
          8224.76      0.04875346
         8232.055      0.04871379
         8239.356      0.04867736
         8246.665      0.04866054
         8253.971      0.04864033
         8261.292      0.04859332
          8268.62      0.04853797
         8275.954      0.04852397
         8283.295      0.04843904
         8290.642      0.04838552
         8297.991      0.04827908
         8305.347      0.04825931
         8312.714      0.04814257
         8320.087      0.04806812
         8327.462        0.047943
         8334.854      0.04785332
         8342.241      0.04775316
         8349.642      0.04760823
         8357.043      0.04765339
         8364.455      0.04768836
          8371.87      0.04776111
         8379.296      0.04778982
         8386.729      0.04780748
         8394.167      0.04783376
         8401.608      0.04789033
         8409.061      0.04786538
         8416.515      0.04785109
         8423.979      0.04784254
         8431.452       0.0478765
         8438.931      0.04785178
         8446.416      0.04781789
         8453.903      0.04779461
         8461.397      0.04778191
         8468.902      0.04776729
         8476.414      0.04770602
         8483.933      0.04770502
         8491.458      0.04765679
         8498.985      0.04764095
         8506.519      0.04752781
         8514.064      0.04750422
         8521.616      0.04743149
         8529.175      0.04738485
          8536.74      0.04730228
         8544.308      0.04721277
         8551.882      0.04714957
         8559.467      0.04702179
          8567.06       0.0469794
         8574.658      0.04686992
         8582.264      0.04679653
         8589.871       0.0466654
          8597.49      0.04657025
         8605.111      0.04646485
         8612.744      0.04638005
         8620.384      0.04625747
          8628.03      0.04613617
         8635.679      0.04603235
         8643.338      0.04589425
         8651.005       0.0457592
         8658.674      0.04565578
         8666.354      0.04547715
         8674.036      0.04540522
         8681.729      0.04521966
         8689.431      0.04508673
         8697.138      0.04490326
         8704.848      0.04478993
         8712.563      0.04462984
         8720.292      0.04446044
         8728.026      0.04432435
         8735.769      0.04419401
         8743.517      0.04398773
         8751.272      0.04384337
         8759.025      0.04366153
         8766.794      0.04351651
          8774.57      0.04333989
         8782.354      0.04313415
         8790.144      0.04298199
          8797.94      0.04282121
         8805.739      0.04262383
         8813.545      0.04242949
         8821.362      0.04227233
         8829.187       0.0420794
         8837.019      0.04190778
         8844.852      0.04169522
         8852.697      0.04148773
         8860.545      0.04129072
         8868.403      0.04109706
          8876.27      0.04087868
         8884.144      0.04067511
         8892.019      0.04049021
         8899.905      0.04027649
           8907.8      0.04004006
         8915.696      0.03985428
         8923.604       0.0396494
          8931.52       0.0394359
         8939.437      0.03919521
         8947.366      0.03899767
         8955.303      0.03877064
         8963.245      0.03853472
         8971.191      0.03830191
         8979.148      0.03806766
         8987.108      0.03784126
         8995.079      0.03759282
         9003.058      0.03737093
         9011.044      0.03716376
         9019.036      0.03692601
         9027.031      0.03669484
         9035.033      0.03647881
         9043.047      0.03622909
         9051.068      0.03602993
         9059.097      0.03579645
         9067.132      0.03554427
         9075.165      0.03530228
         9083.214       0.0350994
         9091.271       0.0348364
         9099.335      0.03461619
         9107.406      0.03438283
         9115.484      0.03414588
         9123.564      0.03387783
         9131.652      0.03363948
         9139.752      0.03340348
         9147.858      0.03313286
         9155.973      0.03288607
         9164.089      0.03263018
         9172.218      0.03240412
         9180.354      0.03209981
         9188.491      0.03185773
         9196.642      0.03160512
         9204.794      0.03135989
         9212.958      0.03106868
          9221.13      0.03080484
          9229.31      0.03057716
          9237.49      0.03029288
         9245.684      0.03002414
          9253.88      0.02974028
         9262.088      0.02945972
         9270.304      0.02921047
         9278.526      0.02891846
         9286.756      0.02863134
         9294.988      0.02836582
         9303.228      0.02806069
         9311.479      0.02777421
         9319.739      0.02749555
         9328.006      0.02720282
         9336.279      0.02691936
         9344.561      0.02661794
         9352.839      0.02630869
         9361.135      0.02605359
         9369.438      0.02574966
         9377.749      0.02547242
         9386.066      0.02512594
         9394.387      0.02486792
         9402.715      0.02454547
         9411.055      0.02424491
         9419.402      0.02392018
         9427.757      0.02362405
         9436.119      0.02332816
         9444.484      0.02299871
         9452.861      0.02270567
         9461.241      0.02237339
         9469.633      0.02205765
         9478.032      0.02175718
         9486.439      0.02142371
         9494.849      0.02110593
         9503.271      0.02081183
           9511.7       0.0205889
         9520.132      0.02031971
         9528.575      0.02005518
         9537.022      0.01981382
         9545.481      0.01956999
         9553.948      0.01932204
         9562.423      0.01905535
         9570.899      0.01879991
         9579.389      0.01857524
          9587.88       0.0183249
         9596.385      0.01805622
         9604.896      0.01782075
         9613.416      0.01758415
         9621.943      0.01732906
         9630.467      0.01707689
         9639.009      0.01681962
         9647.559      0.01658704
         9656.116      0.01633099
         9664.681      0.01608551
         9673.254      0.01584496
         9681.834       0.0155753
         9690.411      0.01534493
         9699.006      0.01510021
         9707.609      0.01484945
          9716.22      0.01461416
         9724.838      0.01436887
         9733.459      0.01412023
         9742.087      0.01388117
         9750.728      0.01363936
         9759.377      0.01337592
         9768.033      0.01314681
         9776.697      0.01289418
         9785.364      0.01263044
         9794.044      0.01240163
         9802.726      0.01215419
          9811.42      0.01190751
         9820.123      0.01165162
         9828.828      0.01140885
         9837.546       0.0111747
         9846.272        0.010928
         9855.006      0.01067778
         9863.741      0.01044704
          9872.49      0.01019872
         9881.242      0.00995801
         9890.007     0.009721379
         9898.779     0.009483473
          9907.56     0.009238669
         9916.347     0.009002203
         9925.138     0.008764742
         9933.936     0.008527945
         9942.747     0.008286073
         9951.566     0.008052016
         9960.393     0.007825931
         9969.228      0.00758578
         9978.064     0.007348164
          9986.91     0.007120644
         9995.769     0.006884204
         10004.63      0.00670515
          10013.5     0.006570104
         10022.39     0.006437785
         10031.27     0.006306608
         10040.17     0.006173472
         10049.08     0.006041012
         10057.99     0.005914371
          10066.9     0.005787309
         10075.84     0.005661962
         10084.77     0.005533019
         10093.72     0.005413123
         10102.67     0.005283499
         10111.62     0.005157909
         10120.58     0.005036443
         10129.57       0.0049133
         10138.55     0.004791794
         10147.55     0.004674559
         10156.53     0.004554078
         10165.54     0.004434793
         10174.55     0.004321123
         10183.59     0.004201859
         10192.61     0.004084155
         10201.66     0.003968711
          10210.7     0.003858682
         10219.75     0.003743491
         10228.81     0.003630371
         10237.89     0.003523138
         10246.97      0.00341161
         10256.05     0.003301984
         10265.15     0.003195144
         10274.25     0.003088929
         10283.36     0.002981841
         10292.49     0.002875323
         10301.61     0.002774891
         10310.74     0.002668412
         10319.89     0.002567574
         10329.04     0.002465512
          10338.2     0.002365249
         10347.37     0.002267757
         10356.55     0.002170922
         10365.73     0.002071007
         10374.93     0.001976256
         10384.12     0.001881001
         10393.34     0.001786218
         10402.55      0.00169393
         10411.77      0.00160077
           10421.      0.00151053
         10430.25     0.001421505
          10439.5     0.001332437
         10448.76     0.001244696
         10458.03     0.001158141
          10467.3     0.001071967
         10476.58     9.870850E-4
         10485.87     9.035739E-4
         10495.17     8.214639E-4
         10504.48     7.701816E-4
         10513.79     7.537111E-4
         10523.12     7.360128E-4
         10532.44     7.196892E-4
         10541.79     7.032430E-4
         10551.14     6.863152E-4
          10560.5     6.700052E-4
         10569.86     6.540840E-4
         10579.23     6.384200E-4
         10588.61     6.228412E-4
         10598.01     6.074885E-4
          10607.4     5.915166E-4
         10616.82     5.764883E-4
         10626.23     5.614527E-4
         10635.65     5.459618E-4
         10645.09     5.315432E-4
         10654.52     5.172715E-4
         10663.97     5.025486E-4
         10673.43     4.880920E-4
         10682.89     4.740776E-4
         10692.36     4.603221E-4
         10701.85     4.463281E-4
         10711.34     4.324973E-4
         10720.83     4.194641E-4
         10730.34     4.061330E-4
         10739.86     3.926498E-4
         10749.38     3.800641E-4
         10758.92     3.670717E-4
         10768.46     3.540038E-4
         10778.01     3.419494E-4
         10787.56     3.296327E-4
         10797.13     3.172029E-4
         10806.71     3.053320E-4
         10816.29     2.936886E-4
         10825.88     2.819010E-4
         10835.48     2.704328E-4
          10845.1     2.592493E-4
         10854.71     2.480635E-4
         10864.35     2.372019E-4
         10873.96     2.264162E-4
         10883.62     2.156407E-4
         10893.26     2.055255E-4
         10902.93     1.950072E-4
          10912.6     1.849042E-4
         10922.28     1.750080E-4
         10931.96     1.653602E-4
         10941.65     1.556213E-4
         10951.35     1.463951E-4
         10961.07     1.371012E-4
         10970.79     1.280431E-4
         10980.51     1.192604E-4
         10990.26     1.105178E-4
           11000.     1.019683E-4
