#  Table wf4f606wsys.tab  Mon 12:22:50 02-Jun-97

#      WAVELENGTH      THROUGHPUT
#       angstroms                

          4672.84     0.000
         4677.005     0.001307737
          4681.18     0.001779946
         4685.355     0.002568478
         4689.537     0.003363733
         4693.722      0.00416522
         4697.909     0.004972414
         4702.102     0.005786404
         4706.293     0.006605702
         4710.493     0.007432286
         4714.697      0.00826514
         4718.902     0.009103769
         4723.114      0.01060014
          4727.33      0.01224853
         4731.543      0.01382762
         4735.766      0.01536687
          4739.99      0.01687522
         4744.221       0.0184033
         4748.455      0.01998797
          4752.69      0.02166128
         4756.932      0.02345518
         4761.172      0.02537347
         4765.421      0.02744178
         4769.674      0.02965725
         4773.929      0.03200124
         4778.189      0.03446962
         4782.454      0.03707446
         4786.719      0.03977383
         4790.989      0.04249341
         4795.262       0.0451934
         4799.542      0.04782083
         4803.826      0.05029618
          4808.11      0.05259283
         4812.401      0.05465223
         4816.696      0.05643945
         4820.993      0.05795894
         4825.292      0.05920584
         4829.597      0.06017531
         4833.907      0.06090579
         4838.221       0.0614245
         4842.537      0.06176548
         4846.855      0.06198987
         4851.179      0.06212056
         4855.508      0.06218177
         4859.842      0.06220075
         4864.177      0.06223504
         4868.518      0.06230627
         4872.863      0.06240317
         4877.209      0.06253655
          4881.56      0.06273545
         4885.914      0.06297638
         4890.277      0.06330369
         4894.639      0.06370808
         4899.004      0.06418943
         4903.376      0.06471886
         4907.748      0.06528891
          4912.13      0.06591368
         4916.512      0.06656253
         4920.897       0.0672348
         4925.289       0.0679564
         4929.685      0.06869954
         4934.082      0.06942057
         4938.482      0.07014922
         4942.887      0.07084196
         4947.301      0.07149073
         4951.714      0.07213718
         4956.131      0.07270714
         4960.554      0.07326154
         4964.976      0.07377502
          4969.41      0.07421983
         4973.842      0.07463215
         4978.278      0.07499488
         4982.724      0.07530938
         4987.168      0.07558373
         4991.617      0.07581694
         4996.069      0.07603753
         5000.528      0.07625346
         5004.991      0.07651091
         5009.455      0.07677733
         5013.923      0.07705259
         5018.398      0.07735055
         5022.874      0.07764984
         5027.357      0.07798061
         5031.841      0.07832174
         5036.329      0.07869802
         5040.827      0.07917377
         5045.323      0.07968999
         5049.823      0.08021393
         5054.327      0.08078982
         5058.838       0.0814162
         5063.353      0.08208412
         5067.869      0.08278486
          5072.39      0.08353049
         5076.919        0.084314
         5081.448      0.08510694
          5085.98      0.08590753
         5090.516      0.08672718
          5095.06      0.08756708
         5099.607      0.08839481
         5104.155      0.08920559
         5108.708      0.08998447
         5113.265      0.09071087
         5117.828       0.0913771
         5122.396      0.09197743
         5126.965      0.09253342
         5131.538       0.0930432
          5136.12      0.09344227
         5140.701      0.09375092
         5145.287      0.09398391
         5149.876      0.09415851
         5154.472      0.09423116
         5159.072      0.09420138
         5163.674      0.09412915
         5168.283      0.09397964
         5172.895      0.09373142
         5177.506      0.09342753
         5182.127       0.0930376
         5186.749      0.09262955
         5191.378      0.09224935
         5196.012      0.09186912
         5200.646      0.09146336
         5205.285      0.09103758
         5209.928       0.0905837
         5214.577      0.09010985
         5219.231      0.08971356
         5223.887      0.08940538
         5228.549       0.0891493
         5233.215      0.08896765
          5237.88       0.0888297
         5242.555        0.088755
         5247.231      0.08870377
         5251.914      0.08869809
         5256.601      0.08872994
          5261.29       0.0888578
         5265.985      0.08912431
          5270.68      0.08951931
         5275.383      0.09000538
         5280.092      0.09058154
         5284.801      0.09117304
         5289.518      0.09178197
         5294.239      0.09245884
         5298.958      0.09319226
         5303.687      0.09404127
         5308.418      0.09499343
         5313.155      0.09602772
         5317.897       0.0971408
         5322.641      0.09827833
         5327.391      0.09938337
          5332.14       0.1004685
         5336.899       0.1016305
         5341.662       0.1027865
         5346.426       0.1039433
         5351.198       0.1051049
         5355.974       0.1062786
         5360.751         0.10744
         5365.532       0.1084855
         5370.318       0.1095163
         5375.111       0.1104477
         5379.908        0.111287
         5384.707       0.1120777
         5389.513       0.1127859
         5394.323       0.1134083
         5399.131       0.1139562
          5403.95       0.1144185
          5408.77       0.1148051
         5413.597       0.1150894
         5418.429       0.1153037
         5423.262       0.1155088
         5428.099       0.1156523
          5432.94       0.1157436
         5437.792       0.1157433
         5442.643       0.1157338
         5447.497       0.1156981
         5452.359       0.1156449
         5457.225       0.1155488
         5462.092       0.1155256
         5466.964        0.115521
          5471.84        0.115501
         5476.724       0.1155595
         5481.612       0.1156666
         5486.501       0.1157619
         5491.398       0.1159358
         5496.293       0.1161355
         5501.198       0.1163605
         5506.108       0.1166551
         5511.019       0.1170505
         5515.938       0.1174585
          5520.86       0.1179666
         5525.785       0.1185247
         5530.713       0.1191159
         5535.646       0.1197576
         5540.587       0.1204099
         5545.532       0.1210953
         5550.478       0.1217942
         5555.432        0.122594
         5560.387       0.1233962
         5565.347        0.124165
         5570.313       0.1249957
         5575.282       0.1257606
         5580.258       0.1264938
         5585.238       0.1271725
          5590.22       0.1278072
         5595.206       0.1284199
         5600.197       0.1289623
         5605.198       0.1293008
         5610.197        0.129571
         5615.201       0.1297567
         5620.213       0.1298217
         5625.226       0.1298309
         5630.246       0.1297457
         5635.268       0.1295691
         5640.294       0.1293337
         5645.328       0.1289888
         5650.367       0.1285652
         5655.406       0.1280936
         5660.451       0.1275705
         5665.502       0.1269867
         5670.559       0.1263754
         5675.617       0.1257337
         5680.679       0.1250089
         5685.752       0.1242632
         5690.823       0.1235308
         5695.899       0.1230864
         5700.979       0.1226576
         5706.064       0.1220582
          5711.16       0.1215171
         5716.254       0.1210297
         5721.353       0.1205229
         5726.456       0.1200247
         5731.567       0.1196026
         5736.682       0.1192256
         5741.799       0.1189316
          5746.92       0.1187055
         5752.053       0.1186499
         5757.183       0.1186607
         5762.318       0.1187731
         5767.458       0.1189638
         5772.602        0.119163
         5777.757       0.1194015
         5782.911       0.1197312
         5788.068       0.1201387
         5793.237       0.1206215
         5798.401       0.1212189
         5803.577       0.1219051
         5808.753       0.1226842
         5813.937        0.123529
         5819.126       0.1243976
         5824.316       0.1252238
         5829.511       0.1260861
         5834.711       0.1270035
         5839.918       0.1279694
          5845.13       0.1289962
         5850.344       0.1299691
         5855.562       0.1309456
         5860.792       0.1319344
         5866.016        0.132858
         5871.251       0.1337121
         5876.488       0.1345998
         5881.732       0.1354036
         5886.982       0.1362098
         5892.232       0.1369269
         5897.491       0.1376143
         5902.749       0.1381885
         5908.017       0.1387249
          5913.29       0.1391612
         5918.563       0.1394911
         5923.846       0.1397823
         5929.133       0.1399606
         5934.421       0.1400892
         5939.714       0.1402055
         5945.012       0.1402348
         5950.318       0.1401832
         5955.629       0.1401162
         5960.941       0.1399851
         5966.258       0.1398629
         5971.579       0.1396918
         5976.909       0.1394695
         5982.243       0.1392436
         5987.579       0.1390322
         5992.923       0.1388047
         5998.271       0.1386088
         6003.622       0.1383965
         6008.976        0.138141
         6014.336       0.1379153
         6019.704       0.1376533
         6025.076       0.1374268
          6030.45       0.1372076
         6035.832        0.137036
         6041.219       0.1369281
         6046.604       0.1369411
         6052.001       0.1369924
         6057.399       0.1370989
         6062.805       0.1373243
         6068.216       0.1375148
         6073.628       0.1376867
         6079.046       0.1379317
         6084.468       0.1382011
         6089.898       0.1384176
         6095.333       0.1387718
          6100.77       0.1392097
         6106.215       0.1395879
         6111.665       0.1400405
         6117.112        0.140506
         6122.572       0.1409684
         6128.033       0.1413803
         6133.502       0.1417823
         6138.976       0.1421994
         6144.452       0.1425859
         6149.936       0.1429518
         6155.417       0.1432658
         6160.911       0.1436056
          6166.41       0.1438388
          6171.91       0.1440122
         6177.418       0.1441649
         6182.932       0.1442292
         6188.443       0.1442523
         6193.966       0.1442233
         6199.491        0.144132
         6205.024       0.1440397
         6210.562       0.1438734
         6216.101       0.1436576
         6221.649       0.1433704
         6227.195       0.1430172
         6232.756       0.1426883
         6238.315       0.1422947
         6243.879       0.1418691
         6249.452       0.1414182
         6255.029       0.1409118
         6260.608       0.1404094
         6266.193       0.1399478
         6271.782        0.139434
         6277.379       0.1389024
         6282.982       0.1384307
         6288.586        0.137992
         6294.198       0.1375153
         6299.809       0.1370665
         6305.435       0.1366653
         6311.059       0.1362735
         6316.688       0.1359147
         6322.326       0.1356205
         6327.968       0.1354285
         6333.612       0.1352217
         6339.262       0.1351308
         6344.916        0.135061
         6350.579       0.1350286
         6356.247       0.1350252
         6361.916        0.135024
         6367.594       0.1351294
         6373.277       0.1352509
         6378.961       0.1354604
         6384.651       0.1357049
         6390.346       0.1359797
         6396.049       0.1362967
         6401.757       0.1366799
         6407.467       0.1370788
         6413.183       0.1374675
         6418.906       0.1378448
         6424.631       0.1382317
         6430.365       0.1385756
         6436.104       0.1389903
         6441.845        0.139458
         6447.594       0.1398804
         6453.345       0.1402783
         6459.101       0.1407015
         6464.866       0.1410945
         6470.632       0.1413976
         6476.407       0.1417232
         6482.184       0.1419944
         6487.969       0.1421304
         6493.756       0.1422628
         6499.548       0.1423823
         6505.349       0.1422922
         6511.154       0.1421051
         6516.962       0.1418149
         6522.778       0.1411708
         6528.596       0.1406202
         6534.419       0.1406858
         6540.251       0.1405192
         6546.088       0.1399993
         6551.927       0.1395225
         6557.771       0.1390005
         6563.624       0.1384822
         6569.478       0.1379129
         6575.341       0.1373148
         6581.206       0.1366899
          6587.08       0.1360369
         6592.955       0.1354617
         6598.839       0.1348692
         6604.729       0.1343336
         6610.616       0.1338602
         6616.516       0.1334081
         6622.421       0.1329492
         6628.328       0.1325564
         6634.244       0.1321587
         6640.165       0.1317221
         6646.087        0.131385
         6652.015       0.1310454
         6657.948       0.1307587
         6663.891       0.1305439
         6669.838       0.1303697
         6675.787       0.1303181
         6681.745       0.1303049
         6687.701       0.1303514
          6693.67       0.1303937
         6699.644       0.1304413
          6705.62       0.1304948
         6711.604       0.1305501
         6717.594       0.1306046
         6723.586       0.1306059
         6729.583       0.1306728
         6735.585       0.1306843
         6741.597        0.130604
         6747.613       0.1304709
         6753.632       0.1302794
          6759.66       0.1299884
         6765.692        0.129599
         6771.723       0.1290794
         6777.767       0.1284182
         6783.813       0.1276621
         6789.867        0.126716
         6795.927       0.1256048
         6801.988       0.1243055
         6808.055       0.1228284
         6814.127       0.1211213
         6820.209        0.119228
         6826.296       0.1171996
         6832.385       0.1149963
         6838.482       0.1127305
         6844.586       0.1104759
         6850.687       0.1081829
         6856.801        0.105757
         6862.917       0.1033202
         6869.042       0.1007446
         6875.173      0.09820195
         6881.305      0.09560763
         6887.446       0.0930001
         6893.586      0.09045004
         6899.738      0.08793756
         6905.896      0.08550648
         6912.056      0.08318372
         6918.225      0.08108427
         6924.399      0.07912963
         6930.572      0.07736436
         6936.757      0.07579956
         6942.944      0.07432388
         6949.141      0.07295405
         6955.343      0.07169189
         6961.546      0.07052796
          6967.76      0.06940125
         6973.971      0.06844056
         6980.195      0.06770049
         6986.424      0.06717119
         6992.656      0.06691126
         6998.897      0.06688118
         7005.143      0.06711655
         7011.392      0.06761047
         7017.645       0.0683308
         7023.904      0.06929722
         7030.173      0.07045085
         7036.448      0.07182144
         7042.724      0.07344303
         7049.009      0.07535326
         7055.292      0.07762512
         7061.589      0.08029611
         7067.892      0.08346163
         7074.196      0.08717846
          7080.51      0.09124097
         7086.829      0.09561317
          7093.15       0.1000006
         7099.477       0.1041165
         7105.809       0.1076165
         7112.151       0.1100791
         7118.498       0.1109688
         7124.848       0.1099856
         7131.207       0.1065683
         7137.571       0.1007756
         7143.933      0.09290114
         7150.309       0.0835048
         7156.687      0.07330561
         7163.074      0.06322016
         7169.467      0.05379676
         7175.862      0.04547985
         7182.262      0.03826237
         7188.668      0.03204261
         7195.084      0.02682484
         7201.506      0.02245676
         7207.929      0.01885604
         7214.362      0.01588928
         7220.801      0.01345773
         7227.237      0.01143945
         7233.688     0.009756476
         7240.144     0.008357969
         7246.601     0.007201818
         7253.069     0.006222964
         7259.538      0.00539139
         7266.017     0.004684462
         7272.498     0.004074003
         7278.989     0.003562272
         7285.481     0.003121413
         7291.979     0.002595241
         7298.487     0.002305562
         7305.001     0.002059679
         7311.517     0.001837601
         7318.038     0.001648363
         7324.569     0.001482331
         7331.103     0.001331134
         7337.646     0.001201821
          7344.19     0.001107627
         7350.745     0.001030727
         7357.301     0.000
