#  Table crwfpc2comp$wfpc2_f785lp_004.tab  Thu 08:19:10 15-May-97

# WAVELENGTH   THROUGHPUT        error
#  ANGSTROMS TRANSMISSION TRANSMISSION

      1860.0    7.4572E-6           0.
      1870.0           0.           0.
      1880.0    9.3215E-7           0.
      1890.0    9.3215E-7           0.
      1900.0    9.3215E-7           0.
      1910.0    1.8643E-6           0.
      1920.0    2.7965E-6           0.
      1930.0    9.3215E-7           0.
      1940.0           0.           0.
      1950.0           0.           0.
      1960.0    9.3215E-7           0.
      1970.0           0.           0.
      1980.0           0.           0.
      1990.0           0.           0.
      2000.0           0.           0.
      2010.0           0.           0.
      2020.0           0.           0.
      2030.0           0.           0.
      2040.0           0.           0.
      2050.0           0.           0.
      2060.0           0.           0.
      2070.0           0.           0.
      2080.0           0.           0.
      2090.0           0.           0.
      2100.0           0.           0.
      2110.0           0.           0.
      2120.0           0.           0.
      2130.0           0.           0.
      2140.0           0.           0.
      2150.0           0.           0.
      2160.0           0.           0.
      2170.0           0.           0.
      2180.0           0.           0.
      2190.0           0.           0.
      2200.0           0.           0.
      2210.0           0.           0.
      2220.0           0.           0.
      2230.0           0.           0.
      2240.0           0.           0.
      2250.0           0.           0.
      2260.0           0.           0.
      2270.0           0.           0.
      2280.0           0.           0.
      2290.0           0.           0.
      2300.0           0.           0.
      2310.0           0.           0.
      2320.0           0.           0.
      2330.0           0.           0.
      2340.0           0.           0.
      2350.0           0.           0.
      2360.0           0.           0.
      2370.0           0.           0.
      2380.0           0.           0.
      2390.0           0.           0.
      2400.0           0.           0.
      2410.0           0.           0.
      2420.0           0.           0.
      2430.0           0.           0.
      2440.0           0.           0.
      2450.0           0.           0.
      2460.0           0.           0.
      2470.0           0.           0.
      2480.0           0.           0.
      2490.0           0.           0.
      2500.0           0.           0.
      2510.0           0.           0.
      2520.0           0.           0.
      2530.0           0.           0.
      2540.0           0.           0.
      2550.0           0.           0.
      2560.0           0.           0.
      2570.0           0.           0.
      2580.0           0.           0.
      2590.0           0.           0.
      2600.0           0.           0.
      2610.0           0.           0.
      2620.0           0.           0.
      2630.0           0.           0.
      2640.0           0.           0.
      2650.0           0.           0.
      2660.0           0.           0.
      2670.0           0.           0.
      2680.0           0.           0.
      2690.0           0.           0.
      2700.0           0.           0.
      2710.0           0.           0.
      2720.0           0.           0.
      2730.0           0.           0.
      2740.0           0.           0.
      2750.0           0.           0.
      2760.0           0.           0.
      2770.0           0.           0.
      2780.0           0.           0.
      2790.0           0.           0.
      2800.0           0.           0.
      2810.0           0.           0.
      2820.0           0.           0.
      2830.0           0.           0.
      2840.0           0.           0.
      2850.0           0.           0.
      2860.0           0.           0.
      2870.0           0.           0.
      2880.0           0.           0.
      2890.0           0.           0.
      2900.0           0.           0.
      2910.0           0.           0.
      2920.0           0.           0.
      2930.0           0.           0.
      2940.0           0.           0.
      2950.0           0.           0.
      2960.0           0.           0.
      2970.0           0.           0.
      2980.0           0.           0.
      2990.0           0.           0.
      3000.0           0.           0.
      3010.0           0.           0.
      3020.0           0.           0.
      3030.0           0.           0.
      3040.0           0.           0.
      3050.0           0.           0.
      3060.0           0.           0.
      3070.0           0.           0.
      3080.0           0.           0.
      3090.0           0.           0.
      3100.0           0.           0.
      3110.0           0.           0.
      3120.0           0.           0.
      3130.0           0.           0.
      3140.0           0.           0.
      3150.0           0.           0.
      3160.0           0.           0.
      3170.0           0.           0.
      3180.0           0.           0.
      3190.0           0.           0.
      3200.0           0.           0.
      3210.0           0.           0.
      3220.0           0.           0.
      3230.0           0.           0.
      3240.0           0.           0.
      3250.0           0.           0.
      3260.0           0.           0.
      3270.0           0.           0.
      3280.0           0.           0.
      3290.0           0.           0.
      3300.0           0.           0.
      3310.0           0.           0.
      3320.0           0.           0.
      3330.0           0.           0.
      3340.0           0.           0.
      3350.0           0.           0.
      3360.0           0.           0.
      3370.0           0.           0.
      3380.0           0.           0.
      3390.0           0.           0.
      3400.0           0.           0.
      3410.0           0.           0.
      3420.0           0.           0.
      3430.0    9.3215E-7           0.
      3440.0           0.           0.
      3450.0           0.           0.
      3460.0    9.3215E-7           0.
      3470.0           0.           0.
      3480.0           0.           0.
      3490.0           0.           0.
      3500.0           0.           0.
      3510.0           0.           0.
      3520.0           0.           0.
      3530.0           0.           0.
      3540.0           0.           0.
      3550.0           0.           0.
      3560.0           0.           0.
      3570.0           0.           0.
      3580.0    9.3215E-7           0.
      3590.0    9.3215E-7           0.
      3600.0           0.           0.
      3610.0           0.           0.
      3620.0           0.           0.
      3630.0           0.           0.
      3640.0           0.           0.
      3650.0           0.           0.
      3660.0           0.           0.
      3670.0           0.           0.
      3680.0           0.           0.
      3690.0           0.           0.
      3700.0           0.           0.
      3710.0           0.           0.
      3720.0           0.           0.
      3730.0           0.           0.
      3740.0           0.           0.
      3750.0           0.           0.
      3760.0           0.           0.
      3770.0           0.           0.
      3780.0           0.           0.
      3790.0           0.           0.
      3800.0           0.           0.
      3810.0           0.           0.
      3820.0           0.           0.
      3830.0           0.           0.
      3840.0           0.           0.
      3850.0           0.           0.
      3860.0           0.           0.
      3870.0           0.           0.
      3880.0           0.           0.
      3890.0           0.           0.
      3900.0           0.           0.
      3910.0           0.           0.
      3920.0           0.           0.
      3930.0           0.           0.
      3940.0           0.           0.
      3950.0           0.           0.
      3960.0           0.           0.
      3970.0           0.           0.
      3980.0           0.           0.
      3990.0           0.           0.
      4000.0           0.           0.
      4010.0           0.           0.
      4020.0           0.           0.
      4030.0           0.           0.
      4040.0           0.           0.
      4050.0           0.           0.
      4060.0           0.           0.
      4070.0           0.           0.
      4080.0           0.           0.
      4090.0           0.           0.
      4100.0           0.           0.
      4110.0           0.           0.
      4120.0           0.           0.
      4130.0           0.           0.
      4140.0           0.           0.
      4150.0           0.           0.
      4160.0           0.           0.
      4170.0           0.           0.
      4180.0           0.           0.
      4190.0           0.           0.
      4200.0           0.           0.
      4210.0           0.           0.
      4220.0           0.           0.
      4230.0           0.           0.
      4240.0           0.           0.
      4250.0           0.           0.
      4260.0           0.           0.
      4270.0           0.           0.
      4280.0           0.           0.
      4290.0           0.           0.
      4300.0           0.           0.
      4310.0           0.           0.
      4320.0           0.           0.
      4330.0           0.           0.
      4340.0           0.           0.
      4350.0           0.           0.
      4360.0           0.           0.
      4370.0           0.           0.
      4380.0           0.           0.
      4390.0           0.           0.
      4400.0    2.7965E-6           0.
      4410.0    6.5251E-6           0.
      4420.0    1.0254E-5           0.
      4430.0    1.1186E-5           0.
      4440.0    1.0254E-5           0.
      4450.0    7.4572E-6           0.
      4460.0    5.5929E-6           0.
      4470.0    2.7965E-6           0.
      4480.0    1.8643E-6           0.
      4490.0    9.3215E-7           0.
      4500.0           0.           0.
      4510.0           0.           0.
      4520.0           0.           0.
      4530.0           0.           0.
      4540.0           0.           0.
      4550.0           0.           0.
      4560.0           0.           0.
      4570.0           0.           0.
      4580.0           0.           0.
      4590.0           0.           0.
      4600.0           0.           0.
      4610.0           0.           0.
      4620.0           0.           0.
      4630.0           0.           0.
      4640.0           0.           0.
      4650.0           0.           0.
      4660.0           0.           0.
      4670.0           0.           0.
      4680.0           0.           0.
      4690.0           0.           0.
      4700.0           0.           0.
      4710.0           0.           0.
      4720.0           0.           0.
      4730.0           0.           0.
      4740.0           0.           0.
      4750.0           0.           0.
      4760.0           0.           0.
      4770.0           0.           0.
      4780.0           0.           0.
      4790.0           0.           0.
      4800.0           0.           0.
      4810.0           0.           0.
      4820.0           0.           0.
      4830.0           0.           0.
      4840.0           0.           0.
      4850.0           0.           0.
      4860.0           0.           0.
      4870.0           0.           0.
      4880.0           0.           0.
      4890.0           0.           0.
      4900.0           0.           0.
      4910.0           0.           0.
      4920.0           0.           0.
      4930.0           0.           0.
      4940.0           0.           0.
      4950.0           0.           0.
      4960.0           0.           0.
      4970.0           0.           0.
      4980.0           0.           0.
      4990.0           0.           0.
      5000.0           0.           0.
      5010.0           0.           0.
      5020.0           0.           0.
      5030.0           0.           0.
      5040.0           0.           0.
      5050.0           0.           0.
      5060.0           0.           0.
      5070.0           0.           0.
      5080.0           0.           0.
      5090.0           0.           0.
      5100.0           0.           0.
      5110.0           0.           0.
      5120.0           0.           0.
      5130.0           0.           0.
      5140.0           0.           0.
      5150.0           0.           0.
      5160.0           0.           0.
      5170.0           0.           0.
      5180.0           0.           0.
      5190.0           0.           0.
      5200.0           0.           0.
      5210.0           0.           0.
      5220.0           0.           0.
      5230.0           0.           0.
      5240.0           0.           0.
      5250.0           0.           0.
      5260.0           0.           0.
      5270.0           0.           0.
      5280.0           0.           0.
      5290.0           0.           0.
      5300.0           0.           0.
      5310.0           0.           0.
      5320.0           0.           0.
      5330.0           0.           0.
      5340.0           0.           0.
      5350.0           0.           0.
      5360.0           0.           0.
      5370.0           0.           0.
      5380.0           0.           0.
      5390.0           0.           0.
      5400.0           0.           0.
      5410.0           0.           0.
      5420.0           0.           0.
      5430.0           0.           0.
      5440.0           0.           0.
      5450.0           0.           0.
      5460.0           0.           0.
      5470.0           0.           0.
      5480.0           0.           0.
      5490.0           0.           0.
      5500.0           0.           0.
      5510.0           0.           0.
      5520.0           0.           0.
      5530.0           0.           0.
      5540.0           0.           0.
      5550.0           0.           0.
      5560.0           0.           0.
      5570.0           0.           0.
      5580.0           0.           0.
      5590.0           0.           0.
      5600.0           0.           0.
      5610.0           0.           0.
      5620.0           0.           0.
      5630.0           0.           0.
      5640.0           0.           0.
      5650.0           0.           0.
      5660.0           0.           0.
      5670.0           0.           0.
      5680.0           0.           0.
      5690.0           0.           0.
      5700.0           0.           0.
      5710.0           0.           0.
      5720.0           0.           0.
      5730.0           0.           0.
      5740.0           0.           0.
      5750.0           0.           0.
      5760.0           0.           0.
      5770.0           0.           0.
      5780.0           0.           0.
      5790.0           0.           0.
      5800.0           0.           0.
      5810.0           0.           0.
      5820.0           0.           0.
      5830.0           0.           0.
      5840.0           0.           0.
      5850.0           0.           0.
      5860.0           0.           0.
      5870.0           0.           0.
      5880.0           0.           0.
      5890.0           0.           0.
      5900.0           0.           0.
      5910.0           0.           0.
      5920.0           0.           0.
      5930.0           0.           0.
      5940.0           0.           0.
      5950.0           0.           0.
      5960.0           0.           0.
      5970.0           0.           0.
      5980.0           0.           0.
      5990.0           0.           0.
      6000.0           0.           0.
      6010.0           0.           0.
      6020.0           0.           0.
      6030.0           0.           0.
      6040.0           0.           0.
      6050.0           0.           0.
      6060.0           0.           0.
      6070.0           0.           0.
      6080.0           0.           0.
      6090.0           0.           0.
      6100.0           0.           0.
      6110.0           0.           0.
      6120.0           0.           0.
      6130.0           0.           0.
      6140.0           0.           0.
      6150.0           0.           0.
      6160.0           0.           0.
      6170.0           0.           0.
      6180.0           0.           0.
      6190.0           0.           0.
      6200.0           0.           0.
      6210.0           0.           0.
      6220.0           0.           0.
      6230.0           0.           0.
      6240.0           0.           0.
      6250.0           0.           0.
      6260.0           0.           0.
      6270.0           0.           0.
      6280.0           0.           0.
      6290.0           0.           0.
      6300.0           0.           0.
      6310.0           0.           0.
      6320.0           0.           0.
      6330.0           0.           0.
      6340.0           0.           0.
      6350.0           0.           0.
      6360.0           0.           0.
      6370.0           0.           0.
      6380.0           0.           0.
      6390.0           0.           0.
      6400.0           0.           0.
      6410.0           0.           0.
      6420.0           0.           0.
      6430.0           0.           0.
      6440.0           0.           0.
      6450.0           0.           0.
      6460.0           0.           0.
      6470.0           0.           0.
      6480.0           0.           0.
      6490.0           0.           0.
      6500.0           0.           0.
      6510.0           0.           0.
      6520.0           0.           0.
      6530.0           0.           0.
      6540.0           0.           0.
      6550.0           0.           0.
      6560.0           0.           0.
      6570.0           0.           0.
      6580.0           0.           0.
      6590.0           0.           0.
      6600.0           0.           0.
      6610.0           0.           0.
      6620.0           0.           0.
      6630.0           0.           0.
      6640.0           0.           0.
      6650.0           0.           0.
      6660.0           0.           0.
      6670.0           0.           0.
      6680.0           0.           0.
      6690.0           0.           0.
      6700.0           0.           0.
      6710.0           0.           0.
      6720.0           0.           0.
      6730.0           0.           0.
      6740.0           0.           0.
      6750.0           0.           0.
      6760.0           0.           0.
      6770.0           0.           0.
      6780.0           0.           0.
      6790.0           0.           0.
      6800.0           0.           0.
      6810.0           0.           0.
      6820.0           0.           0.
      6830.0           0.           0.
      6840.0           0.           0.
      6850.0           0.           0.
      6860.0           0.           0.
      6870.0           0.           0.
      6880.0           0.           0.
      6890.0           0.           0.
      6900.0           0.           0.
      6910.0           0.           0.
      6920.0           0.           0.
      6930.0           0.           0.
      6940.0           0.           0.
      6950.0           0.           0.
      6960.0           0.           0.
      6970.0           0.           0.
      6980.0           0.           0.
      6990.0    9.3215E-7           0.
      7000.0    9.3215E-7           0.
      7010.0    9.3215E-7           0.
      7020.0    9.3215E-7           0.
      7030.0    9.3215E-7           0.
      7040.0    9.3215E-7           0.
      7050.0    9.3215E-7           0.
      7060.0    9.3215E-7           0.
      7070.0    9.3215E-7           0.
      7080.0    1.8643E-6           0.
      7090.0    1.8643E-6           0.
      7100.0    2.7965E-6           0.
      7110.0    2.7965E-6           0.
      7120.0    3.7286E-6           0.
      7130.0    3.7286E-6           0.
      7140.0    4.6608E-6           0.
      7150.0    5.5929E-6           0.
      7160.0    7.4572E-6           0.
      7170.0    9.3215E-6           0.
      7180.0    1.1186E-5           0.
      7190.0    1.3982E-5           0.
      7200.0    1.6779E-5           0.
      7210.0    2.0507E-5           0.
      7220.0    2.5168E-5           0.
      7230.0    3.1693E-5           0.
      7240.0    3.8218E-5           0.
      7250.0    4.7540E-5           0.
      7260.0    5.8726E-5           0.
      7270.0    7.3640E-5           0.
      7280.0    9.0419E-5           0.
      7290.0    1.1372E-4           0.
      7300.0    1.3889E-4           0.
      7310.0    1.7524E-4           0.
      7320.0    2.1439E-4           0.
      7330.0    2.7032E-4           0.
      7340.0    3.3091E-4           0.
      7350.0    4.1574E-4           0.
      7360.0    5.0709E-4           0.
      7370.0    6.3386E-4           0.
      7380.0    7.7182E-4           0.
      7390.0    9.6571E-4           0.
      7400.0    0.0011726           0.
      7410.0    0.0014607           0.
      7420.0    0.0017664           0.
      7430.0    0.0021859           0.
      7440.0    0.0026315           0.
      7450.0     0.003243           0.
      7460.0    0.0038824           0.
      7470.0    0.0047475           0.
      7480.0    0.0056479           0.
      7490.0    0.0068644           0.
      7500.0    0.0081135           0.
      7510.0    0.0097792           0.
      7520.0     0.011479           0.
      7530.0     0.013715           0.
      7540.0     0.015966           0.
      7550.0     0.019728           0.
      7576.0     0.020376           0.
      7578.0     0.021029           0.
      7580.0     0.021644           0.
      7582.0     0.022296           0.
      7584.0     0.023023           0.
      7586.0     0.023657           0.
      7588.0     0.024384           0.
      7590.0      0.02513           0.
      7592.0     0.025876           0.
      7594.0     0.026659           0.
      7596.0     0.027423           0.
      7598.0     0.028225           0.
      7600.0     0.029026           0.
      7602.0     0.029865           0.
      7604.0     0.030704           0.
      7606.0     0.031562           0.
      7608.0     0.032438           0.
      7610.0      0.03337           0.
      7612.0     0.034302           0.
      7614.0      0.03529           0.
      7616.0      0.03626           0.
      7618.0     0.037267           0.
      7620.0     0.038292           0.
      7622.0     0.039336           0.
      7624.0     0.040399           0.
      7626.0      0.04148           0.
      7628.0      0.04258           0.
      7630.0     0.043698           0.
      7632.0     0.044836           0.
      7634.0     0.046047           0.
      7636.0     0.047241           0.
      7638.0     0.048415           0.
      7640.0     0.049645           0.
      7642.0     0.050876           0.
      7644.0     0.052161           0.
      7646.0     0.053449           0.
      7648.0      0.05479           0.
      7650.0     0.056133           0.
      7652.0     0.057476           0.
      7654.0     0.058837           0.
      7656.0     0.060291           0.
      7658.0     0.061689           0.
      7660.0     0.063143           0.
      7662.0     0.064672           0.
      7664.0     0.066219           0.
      7666.0     0.067766           0.
      7668.0     0.069388           0.
      7670.0      0.07101           0.
      7672.0      0.07267           0.
      7674.0     0.074328           0.
      7676.0     0.075969           0.
      7678.0     0.077647           0.
      7680.0     0.079362           0.
      7682.0     0.081114           0.
      7684.0     0.082905           0.
      7686.0     0.084656           0.
      7688.0     0.086446           0.
      7690.0     0.088273           0.
      7692.0     0.090193           0.
      7694.0      0.09202           0.
      7696.0     0.093961           0.
      7698.0       0.0959           0.
      7700.0     0.097839           0.
      7702.0     0.099834           0.
      7704.0      0.10177           0.
      7706.0      0.10377           0.
      7708.0      0.10578           0.
      7710.0      0.10785           0.
      7712.0      0.11001           0.
      7714.0      0.11214           0.
      7716.0      0.11428           0.
      7718.0      0.11643           0.
      7720.0      0.11868           0.
      7722.0       0.1209           0.
      7724.0      0.12312           0.
      7726.0      0.12545           0.
      7728.0      0.12776           0.
      7730.0      0.13005           0.
      7732.0       0.1324           0.
      7734.0      0.13483           0.
      7736.0      0.13721           0.
      7738.0      0.13954           0.
      7740.0      0.14195           0.
      7742.0      0.14433           0.
      7744.0       0.1468           0.
      7746.0       0.1492           0.
      7748.0       0.1517           0.
      7750.0      0.15412           0.
      7752.0      0.15658           0.
      7754.0      0.15914           0.
      7756.0      0.16162           0.
      7758.0      0.16415           0.
      7760.0      0.16676           0.
      7762.0      0.16939           0.
      7764.0      0.17208           0.
      7766.0      0.17465           0.
      7768.0      0.17726           0.
      7770.0      0.17991           0.
      7772.0      0.18257           0.
      7774.0      0.18533           0.
      7776.0      0.18805           0.
      7778.0      0.19087           0.
      7780.0      0.19366           0.
      7782.0      0.19639           0.
      7784.0      0.19924           0.
      7786.0      0.20194           0.
      7788.0      0.20479           0.
      7790.0      0.20768           0.
      7792.0      0.21054           0.
      7794.0      0.21346           0.
      7796.0      0.21618           0.
      7798.0      0.21906           0.
      7800.0      0.22198           0.
      7802.0      0.22476           0.
      7804.0      0.22771           0.
      7806.0       0.2306           0.
      7808.0      0.23341           0.
      7810.0      0.23626           0.
      7812.0      0.23925           0.
      7814.0      0.24225           0.
      7816.0      0.24523           0.
      7818.0      0.24812           0.
      7820.0      0.25097           0.
      7822.0      0.25388           0.
      7824.0      0.25688           0.
      7826.0      0.25985           0.
      7828.0      0.26285           0.
      7830.0      0.26592           0.
      7832.0        0.269           0.
      7834.0      0.27206           0.
      7836.0       0.2751           0.
      7838.0      0.27808           0.
      7840.0      0.28112           0.
      7842.0      0.28427           0.
      7844.0      0.28735           0.
      7846.0      0.29053           0.
      7848.0      0.29346           0.
      7850.0       0.2965           0.
      7852.0      0.29941           0.
      7854.0      0.30245           0.
      7856.0      0.30545           0.
      7858.0      0.30849           0.
      7860.0       0.3116           0.
      7862.0      0.31464           0.
      7864.0      0.31775           0.
      7866.0      0.32077           0.
      7868.0      0.32377           0.
      7870.0      0.32681           0.
      7872.0      0.32966           0.
      7874.0      0.33276           0.
      7876.0      0.33585           0.
      7878.0      0.33893           0.
      7880.0      0.34195           0.
      7882.0      0.34493           0.
      7884.0      0.34794           0.
      7886.0      0.35112           0.
      7888.0      0.35411           0.
      7890.0       0.3572           0.
      7892.0      0.36026           0.
      7894.0      0.36339           0.
      7896.0      0.36645           0.
      7898.0      0.36943           0.
      7900.0      0.37243           0.
      7902.0      0.37541           0.
      7904.0      0.37832           0.
      7906.0      0.38131           0.
      7908.0      0.38425           0.
      7910.0      0.38709           0.
      7912.0      0.39007           0.
      7914.0       0.3932           0.
      7916.0       0.3962           0.
      7918.0      0.39911           0.
      7920.0      0.40222           0.
      7922.0      0.40495           0.
      7924.0      0.40802           0.
      7926.0      0.41072           0.
      7928.0       0.4136           0.
      7930.0      0.41652           0.
      7932.0      0.41934           0.
      7934.0      0.42245           0.
      7936.0       0.4253           0.
      7938.0      0.42832           0.
      7940.0      0.43116           0.
      7942.0      0.43401           0.
      7944.0      0.43696           0.
      7946.0       0.4399           0.
      7948.0      0.44253           0.
      7950.0       0.4454           0.
      7952.0      0.44818           0.
      7954.0      0.45109           0.
      7956.0      0.45398           0.
      7958.0      0.45666           0.
      7960.0       0.4595           0.
      7962.0      0.46224           0.
      7964.0      0.46505           0.
      7966.0       0.4677           0.
      7968.0      0.47051           0.
      7970.0      0.47344           0.
      7972.0      0.47616           0.
      7974.0      0.47901           0.
      7976.0      0.48153           0.
      7978.0       0.4841           0.
      7980.0      0.48673           0.
      7982.0       0.4894           0.
      7984.0      0.49192           0.
      7986.0      0.49439           0.
      7988.0      0.49708           0.
      7990.0      0.49956           0.
      7992.0      0.50226           0.
      7994.0        0.505           0.
      7996.0      0.50756           0.
      7998.0      0.51015           0.
      8000.0      0.52592           0.
      8002.0      0.52819           0.
      8004.0      0.53023           0.
      8006.0      0.53237           0.
      8008.0      0.53466           0.
      8010.0      0.53671           0.
      8012.0      0.53901           0.
      8014.0      0.54124           0.
      8016.0      0.54344           0.
      8018.0      0.54578           0.
      8020.0      0.54783           0.
      8022.0      0.54997           0.
      8024.0      0.55209           0.
      8026.0      0.55431           0.
      8028.0      0.55635           0.
      8030.0       0.5586           0.
      8032.0      0.56043           0.
      8034.0      0.56257           0.
      8036.0      0.56446           0.
      8038.0      0.56662           0.
      8040.0      0.56887           0.
      8042.0      0.57115           0.
      8044.0      0.57324           0.
      8046.0       0.5757           0.
      8048.0      0.57764           0.
      8050.0      0.57995           0.
      8052.0      0.58179           0.
      8054.0      0.58399           0.
      8056.0      0.58625           0.
      8058.0      0.58843           0.
      8060.0      0.59048           0.
      8062.0      0.59266           0.
      8064.0      0.59469           0.
      8066.0       0.5971           0.
      8068.0      0.59904           0.
      8070.0      0.60129           0.
      8072.0      0.60357           0.
      8074.0      0.60541           0.
      8076.0       0.6075           0.
      8078.0      0.60972           0.
      8080.0       0.6117           0.
      8082.0      0.61373           0.
      8084.0      0.61563           0.
      8086.0      0.61761           0.
      8088.0      0.61975           0.
      8090.0      0.62148           0.
      8092.0      0.62322           0.
      8094.0      0.62523           0.
      8096.0      0.62711           0.
      8098.0      0.62931           0.
      8100.0      0.63116           0.
      8102.0      0.63323           0.
      8104.0      0.63509           0.
      8106.0      0.63713           0.
      8108.0      0.63899           0.
      8110.0        0.641           0.
      8112.0      0.64264           0.
      8114.0      0.64456           0.
      8116.0      0.64639           0.
      8118.0      0.64824           0.
      8120.0      0.65016           0.
      8122.0      0.65189           0.
      8124.0      0.65359           0.
      8126.0      0.65521           0.
      8128.0      0.65676           0.
      8130.0      0.65849           0.
      8132.0      0.66043           0.
      8134.0      0.66226           0.
      8136.0      0.66421           0.
      8138.0      0.66597           0.
      8140.0      0.66766           0.
      8142.0      0.66927           0.
      8144.0      0.67085           0.
      8146.0      0.67234           0.
      8148.0      0.67395           0.
      8150.0      0.67553           0.
      8152.0      0.67756           0.
      8154.0      0.67911           0.
      8156.0      0.68077           0.
      8158.0      0.68241           0.
      8160.0      0.68377           0.
      8162.0      0.68502           0.
      8164.0      0.68638           0.
      8166.0      0.68769           0.
      8168.0      0.68916           0.
      8170.0       0.6908           0.
      8172.0      0.69237           0.
      8174.0      0.69423           0.
      8176.0      0.69557           0.
      8178.0       0.6969           0.
      8180.0      0.69831           0.
      8182.0      0.69986           0.
      8184.0      0.70139           0.
      8186.0      0.70241           0.
      8188.0      0.70394           0.
      8190.0      0.70532           0.
      8192.0      0.70683           0.
      8194.0      0.70834           0.
      8196.0      0.70952           0.
      8198.0      0.71092           0.
      8200.0       0.7119           0.
      8202.0        0.713           0.
      8204.0       0.7144           0.
      8206.0      0.71571           0.
      8208.0      0.71701           0.
      8210.0       0.7183           0.
      8212.0       0.7197           0.
      8214.0      0.72108           0.
      8216.0      0.72231           0.
      8218.0      0.72329           0.
      8220.0      0.72454           0.
      8222.0      0.72568           0.
      8224.0      0.72704           0.
      8226.0       0.7281           0.
      8228.0      0.72926           0.
      8230.0      0.73029           0.
      8232.0      0.73111           0.
      8234.0      0.73196           0.
      8236.0      0.73321           0.
      8238.0      0.73405           0.
      8240.0       0.7353           0.
      8242.0      0.73647           0.
      8244.0      0.73767           0.
      8246.0      0.73866           0.
      8248.0       0.7397           0.
      8250.0      0.74065           0.
      8252.0      0.74181           0.
      8254.0      0.74311           0.
      8256.0      0.74412           0.
      8258.0      0.74531           0.
      8260.0      0.74609           0.
      8262.0      0.74721           0.
      8264.0      0.74788           0.
      8266.0      0.74885           0.
      8268.0      0.75003           0.
      8270.0      0.75139           0.
      8272.0      0.75268           0.
      8274.0      0.75391           0.
      8276.0      0.75478           0.
      8278.0      0.75584           0.
      8280.0      0.75653           0.
      8282.0      0.75743           0.
      8284.0      0.75832           0.
      8286.0      0.75941           0.
      8288.0      0.76051           0.
      8290.0      0.76153           0.
      8292.0      0.76231           0.
      8294.0      0.76313           0.
      8296.0      0.76394           0.
      8298.0      0.76476           0.
      8300.0      0.76601           0.
      8302.0      0.76735           0.
      8304.0      0.76835           0.
      8306.0      0.76951           0.
      8308.0      0.77011           0.
      8310.0      0.77108           0.
      8312.0      0.77175           0.
      8314.0      0.77247           0.
      8316.0      0.77329           0.
      8318.0      0.77445           0.
      8320.0      0.77555           0.
      8322.0      0.77648           0.
      8324.0      0.77732           0.
      8326.0      0.77788           0.
      8328.0      0.77857           0.
      8330.0       0.7792           0.
      8332.0      0.78019           0.
      8334.0      0.78139           0.
      8336.0      0.78234           0.
      8338.0      0.78329           0.
      8340.0      0.78418           0.
      8342.0      0.78497           0.
      8344.0      0.78569           0.
      8346.0      0.78631           0.
      8348.0      0.78709           0.
      8350.0      0.78772           0.
      8352.0      0.78856           0.
      8354.0      0.78927           0.
      8356.0      0.79005           0.
      8358.0      0.79093           0.
      8360.0      0.79168           0.
      8362.0      0.79222           0.
      8364.0      0.79293           0.
      8366.0      0.79382           0.
      8368.0      0.79479           0.
      8370.0       0.7955           0.
      8372.0      0.79647           0.
      8374.0      0.79712           0.
      8376.0      0.79785           0.
      8378.0      0.79852           0.
      8380.0      0.79923           0.
      8382.0      0.79995           0.
      8384.0      0.80051           0.
      8386.0      0.80113           0.
      8388.0      0.80186           0.
      8390.0      0.80266           0.
      8392.0      0.80331           0.
      8394.0      0.80393           0.
      8396.0      0.80462           0.
      8398.0      0.80547           0.
      8400.0      0.80618           0.
      8402.0      0.80734           0.
      8404.0      0.80758           0.
      8406.0      0.80821           0.
      8408.0       0.8087           0.
      8410.0      0.80907           0.
      8412.0      0.80969           0.
      8414.0      0.81006           0.
      8416.0      0.81069           0.
      8418.0      0.81144           0.
      8420.0       0.8119           0.
      8422.0      0.81256           0.
      8424.0        0.813           0.
      8426.0      0.81382           0.
      8428.0      0.81464           0.
      8430.0      0.81535           0.
      8432.0      0.81606           0.
      8434.0      0.81681           0.
      8436.0      0.81699           0.
      8438.0      0.81761           0.
      8440.0      0.81794           0.
      8442.0      0.81845           0.
      8444.0      0.81897           0.
      8446.0      0.81944           0.
      8448.0       0.8199           0.
      8450.0      0.82037           0.
      8452.0      0.82083           0.
      8454.0      0.82154           0.
      8456.0      0.82201           0.
      8458.0      0.82257           0.
      8460.0      0.82311           0.
      8462.0      0.82395           0.
      8464.0      0.82456           0.
      8466.0      0.82525           0.
      8468.0      0.82555           0.
      8470.0      0.82628           0.
      8472.0      0.82661           0.
      8474.0      0.82686           0.
      8476.0      0.82719           0.
      8478.0      0.82764           0.
      8480.0      0.82859           0.
      8482.0      0.82921           0.
      8484.0      0.82978           0.
      8486.0      0.83031           0.
      8488.0      0.83077           0.
      8490.0      0.83113           0.
      8492.0      0.83157           0.
      8494.0      0.83236           0.
      8496.0       0.8331           0.
      8498.0      0.83357           0.
      8500.0       0.8339           0.
      8502.0       0.8342           0.
      8504.0      0.83415           0.
      8506.0      0.83439           0.
      8508.0       0.8347           0.
      8510.0      0.83569           0.
      8512.0      0.83629           0.
      8514.0      0.83681           0.
      8516.0      0.83741           0.
      8518.0      0.83782           0.
      8520.0      0.83812           0.
      8522.0      0.83841           0.
      8524.0      0.83903           0.
      8526.0      0.83959           0.
      8528.0      0.84004           0.
      8530.0      0.84061           0.
      8532.0      0.84095           0.
      8534.0      0.84117           0.
      8536.0      0.84173           0.
      8538.0      0.84188           0.
      8540.0      0.84227           0.
      8542.0      0.84283           0.
      8544.0        0.843           0.
      8546.0      0.84367           0.
      8548.0      0.84421           0.
      8550.0       0.8446           0.
      8552.0      0.84494           0.
      8554.0      0.84505           0.
      8556.0      0.84544           0.
      8558.0      0.84529           0.
      8560.0      0.84572           0.
      8562.0      0.84654           0.
      8564.0      0.84714           0.
      8566.0      0.84759           0.
      8568.0      0.84811           0.
      8570.0      0.84837           0.
      8572.0      0.84841           0.
      8574.0      0.84874           0.
      8576.0      0.84934           0.
      8578.0      0.84968           0.
      8580.0      0.85018           0.
      8582.0      0.85068           0.
      8584.0      0.85081           0.
      8586.0      0.85115           0.
      8588.0       0.8513           0.
      8590.0      0.85145           0.
      8592.0      0.85188           0.
      8594.0      0.85253           0.
      8596.0      0.85258           0.
      8598.0      0.85296           0.
      8600.0      0.85344           0.
      8602.0       0.8534           0.
      8604.0       0.8537           0.
      8606.0      0.85447           0.
      8608.0      0.85493           0.
      8610.0      0.85532           0.
      8612.0      0.85566           0.
      8614.0      0.85605           0.
      8616.0      0.85588           0.
      8618.0      0.85635           0.
      8620.0       0.8567           0.
      8622.0       0.8573           0.
      8624.0      0.85752           0.
      8626.0      0.85769           0.
      8628.0      0.85788           0.
      8630.0      0.85825           0.
      8632.0      0.85825           0.
      8634.0      0.85896           0.
      8636.0      0.85937           0.
      8638.0      0.85957           0.
      8640.0      0.85989           0.
      8642.0         0.86           0.
      8644.0      0.86017           0.
      8646.0      0.86062           0.
      8648.0      0.86084           0.
      8650.0      0.86079           0.
      8652.0      0.86127           0.
      8654.0      0.86159           0.
      8656.0      0.86205           0.
      8658.0      0.86267           0.
      8660.0      0.86269           0.
      8662.0      0.86287           0.
      8664.0      0.86293           0.
      8666.0      0.86286           0.
      8668.0      0.86328           0.
      8670.0      0.86386           0.
      8672.0      0.86457           0.
      8674.0      0.86524           0.
      8676.0      0.86522           0.
      8678.0       0.8656           0.
      8680.0      0.86537           0.
      8682.0      0.86543           0.
      8684.0      0.86573           0.
      8686.0      0.86584           0.
      8688.0      0.86625           0.
      8690.0      0.86679           0.
      8692.0      0.86681           0.
      8694.0      0.86698           0.
      8696.0      0.86686           0.
      8698.0      0.86694           0.
      8700.0      0.86746           0.
      8702.0      0.86791           0.
      8704.0       0.8685           0.
      8706.0      0.86864           0.
      8708.0      0.86873           0.
      8710.0      0.86905           0.
      8712.0      0.86925           0.
      8714.0      0.86957           0.
      8716.0      0.86947           0.
      8718.0      0.86977           0.
      8720.0      0.86996           0.
      8722.0      0.87003           0.
      8724.0      0.87041           0.
      8726.0      0.87054           0.
      8728.0      0.87128           0.
      8730.0      0.87126           0.
      8732.0      0.87158           0.
      8734.0      0.87223           0.
      8736.0      0.87281           0.
      8738.0      0.87294           0.
      8740.0      0.87298           0.
      8742.0      0.87279           0.
      8744.0      0.87272           0.
      8746.0      0.87326           0.
      8748.0      0.87346           0.
      8750.0      0.87386           0.
      8752.0      0.87406           0.
      8754.0      0.87466           0.
      8756.0      0.87455           0.
      8758.0       0.8746           0.
      8760.0      0.87443           0.
      8762.0      0.87455           0.
      8764.0      0.87497           0.
      8766.0      0.87566           0.
      8768.0      0.87606           0.
      8770.0      0.87647           0.
      8772.0      0.87695           0.
      8774.0      0.87652           0.
      8776.0      0.87652           0.
      8778.0      0.87648           0.
      8780.0      0.87661           0.
      8782.0      0.87658           0.
      8784.0      0.87706           0.
      8786.0      0.87747           0.
      8788.0      0.87773           0.
      8790.0       0.8779           0.
      8792.0      0.87824           0.
      8794.0      0.87835           0.
      8796.0      0.87874           0.
      8798.0      0.87906           0.
      8800.0      0.87949           0.
      8802.0      0.87965           0.
      8804.0      0.87945           0.
      8806.0      0.87945           0.
      8808.0      0.87954           0.
      8810.0      0.87967           0.
      8812.0      0.87997           0.
      8814.0      0.87993           0.
      8816.0      0.88046           0.
      8818.0      0.88064           0.
      8820.0      0.88101           0.
      8822.0      0.88135           0.
      8824.0      0.88174           0.
      8826.0      0.88165           0.
      8828.0      0.88183           0.
      8830.0      0.88183           0.
      8832.0      0.88226           0.
      8834.0      0.88286           0.
      8836.0      0.88284           0.
      8838.0      0.88297           0.
      8840.0      0.88327           0.
      8842.0      0.88284           0.
      8844.0       0.8832           0.
      8846.0      0.88308           0.
      8848.0      0.88314           0.
      8850.0      0.88305           0.
      8852.0      0.88344           0.
      8854.0       0.8837           0.
      8856.0      0.88361           0.
      8858.0      0.88405           0.
      8860.0      0.88409           0.
      8862.0      0.88435           0.
      8864.0      0.88456           0.
      8866.0      0.88487           0.
      8868.0      0.88487           0.
      8870.0      0.88502           0.
      8872.0      0.88491           0.
      8874.0      0.88495           0.
      8876.0      0.88512           0.
      8878.0      0.88534           0.
      8880.0      0.88541           0.
      8882.0      0.88547           0.
      8884.0      0.88571           0.
      8886.0      0.88612           0.
      8888.0      0.88646           0.
      8890.0      0.88651           0.
      8892.0      0.88677           0.
      8894.0      0.88705           0.
      8896.0      0.88713           0.
      8898.0       0.8872           0.
      8900.0      0.88722           0.
      8902.0      0.88724           0.
      8904.0      0.88696           0.
      8906.0      0.88696           0.
      8908.0      0.88722           0.
      8910.0      0.88765           0.
      8912.0      0.88843           0.
      8914.0      0.88834           0.
      8916.0      0.88832           0.
      8918.0      0.88864           0.
      8920.0      0.88918           0.
      8922.0      0.88916           0.
      8924.0      0.88905           0.
      8926.0      0.88935           0.
      8928.0      0.88946           0.
      8930.0      0.88953           0.
      8932.0       0.8897           0.
      8934.0      0.88972           0.
      8936.0      0.88952           0.
      8938.0      0.88953           0.
      8940.0      0.88972           0.
      8942.0      0.88993           0.
      8944.0      0.89035           0.
      8946.0      0.89054           0.
      8948.0      0.89076           0.
      8950.0      0.89084           0.
      8952.0      0.89071           0.
      8954.0      0.89091           0.
      8956.0      0.89131           0.
      8958.0      0.89123           0.
      8960.0      0.89172           0.
      8962.0      0.89149           0.
      8964.0      0.89153           0.
      8966.0      0.89138           0.
      8968.0      0.89151           0.
      8970.0      0.89192           0.
      8972.0        0.892           0.
      8974.0      0.89227           0.
      8976.0      0.89218           0.
      8978.0      0.89239           0.
      8980.0      0.89244           0.
      8982.0      0.89287           0.
      8984.0      0.89274           0.
      8986.0      0.89304           0.
      8988.0      0.89313           0.
      8990.0      0.89371           0.
      8992.0      0.89302           0.
      8994.0      0.89328           0.
      8996.0      0.89328           0.
      8998.0      0.89311           0.
      9000.0      0.89369           0.
      9002.0      0.89347           0.
      9004.0      0.89438           0.
      9006.0      0.89377           0.
      9008.0      0.89516           0.
      9010.0      0.89474           0.
      9012.0      0.89468           0.
      9014.0      0.89425           0.
      9016.0      0.89516           0.
      9018.0      0.89462           0.
      9020.0      0.89488           0.
      9022.0      0.89503           0.
      9024.0      0.89488           0.
      9026.0      0.89526           0.
      9028.0      0.89475           0.
      9030.0      0.89539           0.
      9032.0      0.89613           0.
      9034.0      0.89587           0.
      9036.0      0.89543           0.
      9038.0      0.89584           0.
      9040.0      0.89543           0.
      9042.0      0.89561           0.
      9044.0      0.89539           0.
      9046.0      0.89563           0.
      9048.0      0.89613           0.
      9050.0      0.89667           0.
      9052.0       0.8966           0.
      9054.0      0.89679           0.
      9056.0      0.89697           0.
      9058.0       0.8971           0.
      9060.0      0.89684           0.
      9062.0      0.89688           0.
      9064.0      0.89679           0.
      9066.0      0.89671           0.
      9068.0      0.89695           0.
      9070.0       0.8969           0.
      9072.0       0.8968           0.
      9074.0      0.89669           0.
      9076.0      0.89725           0.
      9078.0      0.89774           0.
      9080.0      0.89835           0.
      9082.0      0.89845           0.
      9084.0      0.89809           0.
      9086.0      0.89794           0.
      9088.0      0.89794           0.
      9090.0      0.89794           0.
      9092.0      0.89794           0.
      9094.0      0.89833           0.
      9096.0      0.89871           0.
      9098.0      0.89889           0.
      9100.0      0.89874           0.
      9102.0      0.89908           0.
      9104.0      0.89928           0.
      9106.0      0.89949           0.
      9108.0      0.89928           0.
      9110.0      0.89941           0.
      9112.0      0.89968           0.
      9114.0      0.89984           0.
      9116.0      0.89984           0.
      9118.0      0.90001           0.
      9120.0      0.89992           0.
      9122.0      0.89971           0.
      9124.0      0.89951           0.
      9126.0      0.89949           0.
      9128.0      0.89928           0.
      9130.0      0.89973           0.
      9132.0      0.90016           0.
      9134.0      0.90068           0.
      9136.0      0.90087           0.
      9138.0      0.90092           0.
      9140.0       0.9007           0.
      9142.0      0.90074           0.
      9144.0      0.90042           0.
      9146.0       0.9002           0.
      9148.0       0.9005           0.
      9150.0      0.90102           0.
      9152.0      0.90081           0.
      9154.0      0.90085           0.
      9156.0      0.90091           0.
      9158.0      0.90083           0.
      9160.0      0.90057           0.
      9162.0      0.90076           0.
      9164.0      0.90111           0.
      9166.0      0.90135           0.
      9168.0      0.90197           0.
      9170.0      0.90242           0.
      9172.0      0.90223           0.
      9174.0      0.90208           0.
      9176.0       0.9013           0.
      9178.0      0.90128           0.
      9180.0      0.90109           0.
      9182.0      0.90148           0.
      9184.0      0.90189           0.
      9186.0      0.90212           0.
      9188.0      0.90193           0.
      9190.0      0.90175           0.
      9192.0      0.90195           0.
      9194.0      0.90206           0.
      9196.0       0.9023           0.
      9198.0      0.90249           0.
      9200.0      0.90316           0.
      9202.0       0.9032           0.
      9204.0      0.90312           0.
      9206.0      0.90305           0.
      9208.0      0.90312           0.
      9210.0      0.90275           0.
      9212.0      0.90251           0.
      9214.0      0.90258           0.
      9216.0      0.90281           0.
      9218.0      0.90301           0.
      9220.0      0.90266           0.
      9222.0      0.90296           0.
      9224.0      0.90322           0.
      9226.0      0.90385           0.
      9228.0      0.90411           0.
      9230.0      0.90428           0.
      9232.0       0.9043           0.
      9234.0      0.90432           0.
      9236.0      0.90406           0.
      9238.0      0.90396           0.
      9240.0      0.90355           0.
      9242.0      0.90406           0.
      9244.0      0.90396           0.
      9246.0      0.90432           0.
      9248.0      0.90413           0.
      9250.0      0.90437           0.
      9252.0      0.90422           0.
      9254.0      0.90417           0.
      9256.0      0.90393           0.
      9258.0      0.90395           0.
      9260.0      0.90406           0.
      9262.0      0.90426           0.
      9264.0      0.90486           0.
      9266.0      0.90491           0.
      9268.0       0.9051           0.
      9270.0      0.90544           0.
      9272.0      0.90531           0.
      9274.0      0.90519           0.
      9276.0      0.90538           0.
      9278.0      0.90529           0.
      9280.0      0.90521           0.
      9282.0      0.90529           0.
      9284.0      0.90544           0.
      9286.0      0.90538           0.
      9288.0      0.90519           0.
      9290.0      0.90547           0.
      9292.0      0.90575           0.
      9294.0      0.90607           0.
      9296.0      0.90609           0.
      9298.0      0.90628           0.
      9300.0       0.9057           0.
      9302.0      0.90575           0.
      9304.0      0.90555           0.
      9306.0      0.90544           0.
      9308.0      0.90568           0.
      9310.0      0.90607           0.
      9312.0      0.90573           0.
      9314.0      0.90618           0.
      9316.0       0.9062           0.
      9318.0      0.90626           0.
      9320.0      0.90633           0.
      9322.0      0.90635           0.
      9324.0      0.90635           0.
      9326.0      0.90656           0.
      9328.0      0.90641           0.
      9330.0      0.90656           0.
      9332.0      0.90659           0.
      9334.0      0.90663           0.
      9336.0      0.90683           0.
      9338.0      0.90693           0.
      9340.0      0.90711           0.
      9342.0       0.9071           0.
      9344.0      0.90682           0.
      9346.0      0.90652           0.
      9348.0       0.9065           0.
      9350.0      0.90646           0.
      9352.0      0.90628           0.
      9354.0      0.90652           0.
      9356.0      0.90708           0.
      9358.0      0.90754           0.
      9360.0      0.90767           0.
      9362.0      0.90818           0.
      9364.0      0.90816           0.
      9366.0      0.90821           0.
      9368.0      0.90816           0.
      9370.0       0.9078           0.
      9372.0      0.90825           0.
      9374.0       0.9082           0.
      9376.0      0.90857           0.
      9378.0      0.90889           0.
      9380.0      0.90834           0.
      9382.0      0.90833           0.
      9384.0      0.90751           0.
      9386.0      0.90736           0.
      9388.0      0.90738           0.
      9390.0      0.90788           0.
      9392.0      0.90861           0.
      9394.0      0.90911           0.
      9396.0      0.90911           0.
      9398.0      0.90933           0.
      9400.0        0.909           0.
      9402.0      0.90864           0.
      9404.0      0.90844           0.
      9406.0      0.90861           0.
      9408.0      0.90849           0.
      9410.0      0.90874           0.
      9412.0      0.90903           0.
      9414.0      0.90872           0.
      9416.0      0.90885           0.
      9418.0      0.90831           0.
      9420.0      0.90838           0.
      9422.0       0.9084           0.
      9424.0      0.90877           0.
      9426.0      0.90872           0.
      9428.0        0.909           0.
      9430.0      0.90939           0.
      9432.0      0.90961           0.
      9434.0      0.90937           0.
      9436.0      0.90967           0.
      9438.0       0.9093           0.
      9440.0      0.90917           0.
      9442.0      0.90931           0.
      9444.0      0.90894           0.
      9446.0      0.90946           0.
      9448.0      0.90956           0.
      9450.0       0.9098           0.
      9452.0      0.90987           0.
      9454.0      0.91015           0.
      9456.0      0.91013           0.
      9458.0      0.91012           0.
      9460.0      0.90939           0.
      9462.0      0.90941           0.
      9464.0        0.909           0.
      9466.0      0.90894           0.
      9468.0      0.90935           0.
      9470.0      0.90958           0.
      9472.0      0.91013           0.
      9474.0       0.9104           0.
      9476.0      0.91062           0.
      9478.0      0.91038           0.
      9480.0      0.90995           0.
      9482.0      0.90971           0.
      9484.0      0.90954           0.
      9486.0      0.90989           0.
      9488.0      0.90987           0.
      9490.0      0.91021           0.
      9492.0      0.91027           0.
      9494.0      0.91019           0.
      9496.0      0.91002           0.
      9498.0      0.90971           0.
      9500.0      0.90976           0.
      9502.0      0.91008           0.
      9504.0      0.91038           0.
      9506.0      0.91095           0.
      9508.0      0.91123           0.
      9510.0      0.91133           0.
      9512.0      0.91174           0.
      9514.0      0.91164           0.
      9516.0      0.91172           0.
      9518.0      0.91159           0.
      9520.0      0.91105           0.
      9522.0      0.91068           0.
      9524.0      0.91045           0.
      9526.0      0.91021           0.
      9528.0      0.91051           0.
      9530.0      0.91068           0.
      9532.0      0.91068           0.
      9534.0      0.91133           0.
      9536.0      0.91077           0.
      9538.0      0.91146           0.
      9540.0      0.91146           0.
      9542.0      0.91166           0.
      9544.0      0.91164           0.
      9546.0      0.91155           0.
      9548.0      0.91202           0.
      9550.0      0.91252           0.
      9552.0      0.91185           0.
      9554.0      0.91183           0.
      9556.0      0.91192           0.
      9558.0      0.91224           0.
      9560.0       0.9123           0.
      9562.0      0.91125           0.
      9564.0      0.91092           0.
      9566.0      0.91118           0.
      9568.0      0.91062           0.
      9570.0      0.91101           0.
      9572.0      0.91107           0.
      9574.0      0.91153           0.
      9576.0      0.91211           0.
      9578.0       0.9125           0.
      9580.0      0.91233           0.
      9582.0      0.91273           0.
      9584.0      0.91269           0.
      9586.0      0.91224           0.
      9588.0      0.91248           0.
      9590.0      0.91189           0.
      9592.0      0.91155           0.
      9594.0      0.91142           0.
      9596.0      0.91153           0.
      9598.0      0.91198           0.
      9600.0      0.91235           0.
      9602.0      0.91224           0.
      9604.0      0.91248           0.
      9606.0      0.91235           0.
      9608.0      0.91224           0.
      9610.0      0.91258           0.
      9612.0      0.91291           0.
      9614.0      0.91329           0.
      9616.0      0.91377           0.
      9618.0      0.91366           0.
      9620.0      0.91319           0.
      9622.0      0.91295           0.
      9624.0      0.91297           0.
      9626.0      0.91276           0.
      9628.0      0.91327           0.
      9630.0      0.91286           0.
      9632.0      0.91282           0.
      9634.0      0.91237           0.
      9636.0      0.91241           0.
      9638.0      0.91252           0.
      9640.0      0.91239           0.
      9642.0      0.91286           0.
      9644.0      0.91317           0.
      9646.0      0.91336           0.
      9648.0       0.9134           0.
      9650.0      0.91329           0.
      9652.0      0.91299           0.
      9654.0      0.91286           0.
      9656.0      0.91301           0.
      9658.0      0.91321           0.
      9660.0      0.91343           0.
      9662.0      0.91345           0.
      9664.0      0.91317           0.
      9666.0      0.91329           0.
      9668.0      0.91325           0.
      9670.0      0.91366           0.
      9672.0      0.91383           0.
      9674.0      0.91358           0.
      9676.0      0.91349           0.
      9678.0      0.91297           0.
      9680.0      0.91235           0.
      9682.0      0.91243           0.
      9684.0      0.91269           0.
      9686.0      0.91321           0.
      9688.0      0.91377           0.
      9690.0      0.91338           0.
      9692.0       0.9136           0.
      9694.0      0.91353           0.
      9696.0      0.91319           0.
      9698.0      0.91338           0.
      9700.0      0.91379           0.
      9702.0      0.91407           0.
      9704.0       0.9137           0.
      9706.0      0.91349           0.
      9708.0      0.91332           0.
      9710.0      0.91394           0.
      9712.0      0.91396           0.
      9714.0      0.91429           0.
      9716.0      0.91401           0.
      9718.0      0.91442           0.
      9720.0      0.91412           0.
      9722.0      0.91409           0.
      9724.0       0.9142           0.
      9726.0      0.91401           0.
      9728.0      0.91411           0.
      9730.0      0.91362           0.
      9732.0      0.91377           0.
      9734.0      0.91399           0.
      9736.0      0.91383           0.
      9738.0      0.91411           0.
      9740.0      0.91403           0.
      9742.0      0.91435           0.
      9744.0      0.91416           0.
      9746.0       0.9144           0.
      9748.0      0.91427           0.
      9750.0      0.91465           0.
      9752.0       0.9145           0.
      9754.0      0.91429           0.
      9756.0      0.91411           0.
      9758.0      0.91396           0.
      9760.0      0.91362           0.
      9762.0      0.91343           0.
      9764.0      0.91368           0.
      9766.0      0.91425           0.
      9768.0      0.91517           0.
      9770.0      0.91528           0.
      9772.0      0.91517           0.
      9774.0      0.91517           0.
      9776.0      0.91496           0.
      9778.0      0.91494           0.
      9780.0      0.91526           0.
      9782.0      0.91476           0.
      9784.0       0.9139           0.
      9786.0      0.91386           0.
      9788.0       0.9139           0.
      9790.0      0.91429           0.
      9792.0      0.91483           0.
      9794.0      0.91528           0.
      9796.0      0.91575           0.
      9798.0      0.91552           0.
      9800.0      0.91567           0.
      9802.0      0.91522           0.
      9804.0      0.91543           0.
      9806.0      0.91535           0.
      9808.0      0.91532           0.
      9810.0      0.91539           0.
      9812.0       0.9153           0.
      9814.0      0.91509           0.
      9816.0      0.91498           0.
      9818.0      0.91474           0.
      9820.0      0.91455           0.
      9822.0      0.91502           0.
      9824.0      0.91494           0.
      9826.0      0.91511           0.
      9828.0      0.91481           0.
      9830.0      0.91476           0.
      9832.0      0.91537           0.
      9834.0       0.9155           0.
      9836.0      0.91535           0.
      9838.0      0.91576           0.
      9840.0      0.91549           0.
      9842.0      0.91563           0.
      9844.0      0.91534           0.
      9846.0       0.9156           0.
      9848.0      0.91478           0.
      9850.0       0.9145           0.
      9852.0       0.9148           0.
      9854.0      0.91452           0.
      9856.0      0.91534           0.
      9858.0      0.91558           0.
      9860.0      0.91569           0.
      9862.0      0.91591           0.
      9864.0      0.91599           0.
      9866.0      0.91616           0.
      9868.0      0.91623           0.
      9870.0      0.91558           0.
      9872.0      0.91554           0.
      9874.0      0.91519           0.
      9876.0      0.91502           0.
      9878.0      0.91524           0.
      9880.0      0.91532           0.
      9882.0      0.91565           0.
      9884.0      0.91582           0.
      9886.0      0.91614           0.
      9888.0      0.91601           0.
      9890.0      0.91593           0.
      9892.0      0.91569           0.
      9894.0      0.91537           0.
      9896.0      0.91576           0.
      9898.0      0.91614           0.
      9900.0      0.91621           0.
      9902.0      0.91638           0.
      9904.0      0.91612           0.
      9906.0      0.91588           0.
      9908.0       0.9156           0.
      9910.0      0.91571           0.
      9912.0      0.91545           0.
      9914.0      0.91576           0.
      9916.0      0.91597           0.
      9918.0      0.91554           0.
      9920.0      0.91558           0.
      9922.0       0.9161           0.
      9924.0      0.91608           0.
      9926.0      0.91586           0.
      9928.0      0.91571           0.
      9930.0      0.91586           0.
      9932.0      0.91597           0.
      9934.0      0.91601           0.
      9936.0      0.91582           0.
      9938.0      0.91591           0.
      9940.0      0.91567           0.
      9942.0      0.91532           0.
      9944.0      0.91563           0.
      9946.0      0.91554           0.
      9948.0      0.91582           0.
      9950.0      0.91571           0.
      9952.0      0.91562           0.
      9954.0      0.91565           0.
      9956.0      0.91655           0.
      9958.0      0.91662           0.
      9960.0      0.91673           0.
      9962.0      0.91651           0.
      9964.0      0.91619           0.
      9966.0      0.91606           0.
      9968.0      0.91629           0.
      9970.0      0.91586           0.
      9972.0      0.91575           0.
      9974.0      0.91599           0.
      9976.0       0.9158           0.
      9978.0       0.9155           0.
      9980.0      0.91588           0.
      9982.0       0.9158           0.
      9984.0      0.91591           0.
      9986.0      0.91612           0.
      9988.0      0.91625           0.
      9990.0      0.91601           0.
      9992.0      0.91563           0.
      9994.0      0.91517           0.
      9996.0      0.91567           0.
      9998.0      0.91575           0.
     10000.0       0.9156           0.
     10002.0      0.91591           0.
     10004.0      0.91582           0.
     10006.0      0.91588           0.
     10008.0      0.91625           0.
     10010.0      0.91595           0.
     10012.0      0.91565           0.
     10014.0      0.91563           0.
     10016.0      0.91597           0.
     10018.0      0.91606           0.
     10020.0      0.91599           0.
     10022.0       0.9158           0.
     10024.0      0.91537           0.
     10026.0      0.91554           0.
     10028.0      0.91575           0.
     10030.0      0.91563           0.
     10032.0      0.91591           0.
     10034.0      0.91565           0.
     10036.0      0.91485           0.
     10038.0      0.91509           0.
     10040.0      0.91545           0.
     10042.0      0.91595           0.
     10044.0      0.91562           0.
     10046.0      0.91576           0.
     10048.0      0.91509           0.
     10050.0      0.91519           0.
     10052.0      0.91504           0.
     10054.0      0.91489           0.
     10056.0      0.91521           0.
     10058.0      0.91552           0.
     10060.0      0.91573           0.
     10062.0      0.91608           0.
     10064.0      0.91582           0.
     10066.0      0.91556           0.
     10068.0      0.91588           0.
     10070.0      0.91563           0.
     10072.0      0.91562           0.
     10074.0      0.91595           0.
     10076.0      0.91606           0.
     10078.0      0.91578           0.
     10080.0      0.91582           0.
     10082.0       0.9158           0.
     10084.0      0.91563           0.
     10086.0      0.91567           0.
     10088.0      0.91601           0.
     10090.0      0.91629           0.
     10092.0      0.91644           0.
     10094.0      0.91666           0.
     10096.0      0.91653           0.
     10098.0      0.91651           0.
     10100.0      0.91601           0.
     10102.0      0.91576           0.
     10104.0      0.91582           0.
     10106.0      0.91578           0.
     10108.0      0.91573           0.
     10110.0      0.91604           0.
     10112.0      0.91532           0.
     10114.0      0.91565           0.
     10116.0       0.9158           0.
     10118.0      0.91535           0.
     10120.0      0.91578           0.
     10122.0      0.91547           0.
     10124.0      0.91573           0.
     10126.0      0.91545           0.
     10128.0      0.91541           0.
     10130.0       0.9155           0.
     10132.0      0.91569           0.
     10134.0      0.91576           0.
     10136.0      0.91567           0.
     10138.0      0.91547           0.
     10140.0      0.91513           0.
     10142.0      0.91528           0.
     10144.0      0.91573           0.
     10146.0       0.9158           0.
     10148.0      0.91599           0.
     10150.0      0.91591           0.
     10152.0      0.91623           0.
     10154.0      0.91593           0.
     10156.0      0.91569           0.
     10158.0      0.91552           0.
     10160.0      0.91534           0.
     10162.0      0.91532           0.
     10164.0      0.91545           0.
     10166.0      0.91545           0.
     10168.0      0.91608           0.
     10170.0      0.91631           0.
     10172.0      0.91608           0.
     10174.0      0.91629           0.
     10176.0      0.91597           0.
     10178.0      0.91593           0.
     10180.0      0.91599           0.
     10182.0      0.91556           0.
     10184.0      0.91562           0.
     10186.0      0.91506           0.
     10188.0       0.9148           0.
     10190.0      0.91485           0.
     10192.0      0.91504           0.
     10194.0      0.91517           0.
     10196.0      0.91496           0.
     10198.0      0.91539           0.
     10200.0      0.91509           0.
     10202.0      0.91481           0.
     10204.0      0.91517           0.
     10206.0      0.91504           0.
     10208.0      0.91522           0.
     10210.0      0.91556           0.
     10212.0      0.91584           0.
     10214.0      0.91573           0.
     10216.0      0.91571           0.
     10218.0      0.91535           0.
     10220.0      0.91496           0.
     10222.0      0.91496           0.
     10224.0        0.915           0.
     10226.0        0.915           0.
     10228.0      0.91466           0.
     10230.0      0.91452           0.
     10232.0      0.91476           0.
     10234.0      0.91545           0.
     10236.0      0.91532           0.
     10238.0       0.9155           0.
     10240.0      0.91588           0.
     10242.0       0.9159           0.
     10244.0      0.91554           0.
     10246.0       0.9153           0.
     10248.0      0.91466           0.
     10250.0      0.91474           0.
     10252.0      0.91466           0.
     10254.0      0.91442           0.
     10256.0      0.91472           0.
     10258.0      0.91468           0.
     10260.0      0.91466           0.
     10262.0      0.91494           0.
     10264.0      0.91493           0.
     10266.0      0.91504           0.
     10268.0      0.91494           0.
     10270.0      0.91521           0.
     10272.0      0.91489           0.
     10274.0      0.91513           0.
     10276.0      0.91521           0.
     10278.0      0.91481           0.
     10280.0      0.91478           0.
     10282.0      0.91493           0.
     10284.0      0.91465           0.
     10286.0      0.91463           0.
     10288.0      0.91452           0.
     10290.0      0.91416           0.
     10292.0      0.91437           0.
     10294.0      0.91375           0.
     10296.0      0.91399           0.
     10298.0      0.91489           0.
     10300.0      0.91502           0.
     10302.0      0.91537           0.
     10304.0      0.91481           0.
     10306.0      0.91439           0.
     10308.0      0.91422           0.
     10310.0      0.91418           0.
     10312.0      0.91388           0.
     10314.0      0.91381           0.
     10316.0      0.91407           0.
     10318.0      0.91412           0.
     10320.0      0.91446           0.
     10322.0      0.91412           0.
     10324.0      0.91379           0.
     10326.0       0.9142           0.
     10328.0      0.91414           0.
     10330.0      0.91383           0.
     10332.0      0.91368           0.
     10334.0      0.91379           0.
     10336.0      0.91401           0.
     10338.0      0.91383           0.
     10340.0      0.91349           0.
     10342.0      0.91358           0.
     10344.0      0.91414           0.
     10346.0      0.91455           0.
     10348.0      0.91427           0.
     10350.0      0.91405           0.
     10352.0      0.91496           0.
     10354.0      0.91474           0.
     10356.0      0.91502           0.
     10358.0      0.91418           0.
     10360.0      0.91424           0.
     10362.0      0.91411           0.
     10364.0       0.9136           0.
     10366.0      0.91343           0.
     10368.0       0.9137           0.
     10370.0      0.91349           0.
     10372.0      0.91394           0.
     10374.0      0.91396           0.
     10376.0      0.91401           0.
     10378.0       0.9139           0.
     10380.0      0.91383           0.
     10382.0      0.91377           0.
     10384.0      0.91377           0.
     10386.0      0.91384           0.
     10388.0       0.9134           0.
     10390.0      0.91334           0.
     10392.0      0.91338           0.
     10394.0       0.9133           0.
     10396.0      0.91319           0.
     10398.0      0.91343           0.
     10400.0      0.91343           0.
     10402.0      0.91351           0.
     10404.0      0.91377           0.
     10406.0      0.91353           0.
     10408.0      0.91364           0.
     10410.0      0.91325           0.
     10412.0      0.91273           0.
     10414.0      0.91276           0.
     10416.0      0.91282           0.
     10418.0      0.91256           0.
     10420.0      0.91301           0.
     10422.0       0.9131           0.
     10424.0      0.91351           0.
     10426.0      0.91383           0.
     10428.0      0.91353           0.
     10430.0      0.91353           0.
     10432.0      0.91373           0.
     10434.0      0.91334           0.
     10436.0      0.91336           0.
     10438.0      0.91332           0.
     10440.0      0.91332           0.
     10442.0      0.91315           0.
     10444.0      0.91312           0.
     10446.0      0.91284           0.
     10448.0      0.91319           0.
     10450.0      0.91364           0.
     10452.0      0.91407           0.
     10454.0      0.91381           0.
     10456.0      0.91355           0.
     10458.0      0.91345           0.
     10460.0       0.9131           0.
     10462.0      0.91284           0.
     10464.0      0.91295           0.
     10466.0      0.91297           0.
     10468.0      0.91302           0.
     10470.0      0.91254           0.
     10472.0      0.91237           0.
     10474.0      0.91258           0.
     10476.0      0.91278           0.
     10478.0      0.91261           0.
     10480.0      0.91297           0.
     10482.0      0.91297           0.
     10484.0      0.91274           0.
     10486.0      0.91286           0.
     10488.0      0.91282           0.
     10490.0       0.9128           0.
     10492.0       0.9131           0.
     10494.0      0.91284           0.
     10496.0      0.91362           0.
     10498.0      0.91358           0.
     10500.0      0.91276           0.
     10502.0      0.91273           0.
     10504.0      0.91258           0.
     10506.0      0.91245           0.
     10508.0      0.91258           0.
     10510.0      0.91278           0.
     10512.0      0.91315           0.
     10514.0      0.91301           0.
     10516.0      0.91284           0.
     10518.0       0.9125           0.
     10520.0      0.91258           0.
     10522.0      0.91209           0.
     10524.0      0.91159           0.
     10526.0      0.91181           0.
     10528.0      0.91185           0.
     10530.0      0.91204           0.
     10532.0      0.91202           0.
     10534.0      0.91237           0.
     10536.0      0.91246           0.
     10538.0      0.91174           0.
     10540.0      0.91246           0.
     10542.0      0.91202           0.
     10544.0      0.91207           0.
     10546.0        0.912           0.
     10548.0       0.9114           0.
     10550.0      0.91129           0.
     10552.0      0.91107           0.
     10554.0      0.91099           0.
     10556.0      0.91137           0.
     10558.0      0.91109           0.
     10560.0      0.91086           0.
     10562.0      0.91094           0.
     10564.0      0.91077           0.
     10566.0      0.91077           0.
     10568.0      0.91064           0.
     10570.0       0.9109           0.
     10572.0      0.91116           0.
     10574.0      0.91151           0.
     10576.0      0.91133           0.
     10578.0      0.91131           0.
     10580.0      0.91086           0.
     10582.0      0.91103           0.
     10584.0      0.91088           0.
     10586.0      0.91084           0.
     10588.0       0.9111           0.
     10590.0      0.91107           0.
     10592.0      0.91082           0.
     10594.0      0.91105           0.
     10596.0      0.91114           0.
     10598.0      0.91129           0.
     10600.0      0.91105           0.
     10602.0      0.91066           0.
     10604.0      0.91075           0.
     10606.0       0.9104           0.
     10608.0      0.91023           0.
     10610.0      0.91015           0.
     10612.0      0.90976           0.
     10614.0      0.91045           0.
     10616.0      0.91045           0.
     10618.0      0.91054           0.
     10620.0      0.91066           0.
     10622.0      0.91019           0.
     10624.0      0.91077           0.
     10626.0      0.91034           0.
     10628.0      0.91101           0.
     10630.0      0.91053           0.
     10632.0      0.91051           0.
     10634.0      0.90944           0.
     10636.0       0.9093           0.
     10638.0      0.90933           0.
     10640.0      0.90917           0.
     10642.0      0.90937           0.
     10644.0      0.90926           0.
     10646.0      0.91019           0.
     10648.0      0.91027           0.
     10650.0      0.91002           0.
     10652.0       0.9104           0.
     10654.0      0.91017           0.
     10656.0      0.91021           0.
     10658.0       0.9106           0.
     10660.0      0.90999           0.
     10662.0      0.90989           0.
     10664.0      0.90952           0.
     10666.0      0.90937           0.
     10668.0       0.9093           0.
     10670.0      0.90941           0.
     10672.0      0.90909           0.
     10674.0      0.90905           0.
     10676.0      0.90892           0.
     10678.0      0.90859           0.
     10680.0      0.90911           0.
     10682.0      0.90903           0.
     10684.0      0.90915           0.
     10686.0       0.9095           0.
     10688.0      0.90956           0.
     10690.0      0.90956           0.
     10692.0      0.90937           0.
     10694.0      0.90902           0.
     10696.0      0.90922           0.
     10698.0      0.90876           0.
     10700.0      0.90892           0.
     10702.0      0.90876           0.
     10704.0      0.90855           0.
     10706.0      0.90823           0.
     10708.0      0.90834           0.
     10710.0      0.90814           0.
     10712.0      0.90818           0.
     10714.0      0.90842           0.
     10716.0      0.90872           0.
     10718.0      0.90903           0.
     10720.0      0.90902           0.
     10722.0      0.90876           0.
     10724.0      0.90872           0.
     10726.0      0.90898           0.
     10728.0        0.909           0.
     10730.0       0.9087           0.
     10732.0      0.90855           0.
     10734.0      0.90862           0.
     10736.0      0.90833           0.
     10738.0      0.90782           0.
     10740.0      0.90773           0.
     10742.0       0.9082           0.
     10744.0      0.90782           0.
     10746.0      0.90805           0.
     10748.0      0.90825           0.
     10750.0      0.90855           0.
     10752.0      0.90881           0.
     10754.0       0.9087           0.
     10756.0      0.90814           0.
     10758.0      0.90797           0.
     10760.0      0.90773           0.
     10762.0      0.90693           0.
     10764.0      0.90661           0.
     10766.0      0.90695           0.
     10768.0       0.9065           0.
     10770.0      0.90682           0.
     10772.0      0.90702           0.
     10774.0      0.90738           0.
     10776.0      0.90739           0.
     10778.0      0.90745           0.
     10780.0      0.90734           0.
     10782.0       0.9071           0.
     10784.0      0.90754           0.
     10786.0      0.90726           0.
     10788.0      0.90721           0.
     10790.0      0.90741           0.
     10792.0      0.90706           0.
     10794.0      0.90683           0.
     10796.0      0.90646           0.
     10798.0      0.90605           0.
     10800.0      0.90656           0.
     10802.0      0.90633           0.
     10804.0      0.90607           0.
     10806.0      0.90626           0.
     10808.0      0.90633           0.
     10810.0      0.90678           0.
     10812.0      0.90616           0.
     10814.0      0.90639           0.
     10816.0      0.90657           0.
     10818.0      0.90635           0.
     10820.0      0.90605           0.
     10822.0      0.90609           0.
     10824.0      0.90596           0.
     10826.0      0.90587           0.
     10828.0      0.90553           0.
     10830.0      0.90512           0.
     10832.0      0.90519           0.
     10834.0      0.90553           0.
     10836.0      0.90564           0.
     10838.0      0.90603           0.
     10840.0      0.90609           0.
     10842.0      0.90598           0.
     10844.0      0.90562           0.
     10846.0      0.90594           0.
     10848.0      0.90544           0.
     10850.0      0.90514           0.
     10852.0      0.90499           0.
     10854.0      0.90525           0.
     10856.0      0.90547           0.
     10858.0      0.90562           0.
     10860.0       0.9054           0.
     10862.0      0.90564           0.
     10864.0      0.90544           0.
     10866.0      0.90564           0.
     10868.0      0.90577           0.
     10870.0      0.90538           0.
     10872.0      0.90534           0.
     10874.0      0.90516           0.
     10876.0      0.90499           0.
     10878.0       0.9046           0.
     10880.0      0.90469           0.
     10882.0      0.90421           0.
     10884.0      0.90428           0.
     10886.0      0.90409           0.
     10888.0      0.90464           0.
     10890.0      0.90488           0.
     10892.0       0.9049           0.
     10894.0      0.90568           0.
     10896.0      0.90516           0.
     10898.0      0.90477           0.
     10900.0      0.90437           0.
     10902.0      0.90434           0.
     10904.0       0.9037           0.
     10906.0      0.90383           0.
     10908.0      0.90357           0.
     10910.0      0.90363           0.
     10912.0      0.90368           0.
     10914.0       0.9037           0.
     10916.0      0.90389           0.
     10918.0      0.90348           0.
     10920.0       0.9035           0.
     10922.0      0.90357           0.
     10924.0      0.90344           0.
     10926.0      0.90367           0.
     10928.0      0.90374           0.
     10930.0      0.90393           0.
     10932.0      0.90376           0.
     10934.0       0.9034           0.
     10936.0      0.90312           0.
     10938.0      0.90277           0.
     10940.0      0.90279           0.
     10942.0      0.90242           0.
     10944.0      0.90279           0.
     10946.0      0.90301           0.
     10948.0      0.90305           0.
     10950.0      0.90331           0.
     10952.0      0.90307           0.
     10954.0      0.90296           0.
     10956.0      0.90305           0.
     10958.0      0.90303           0.
     10960.0      0.90258           0.
     10962.0      0.90225           0.
     10964.0      0.90212           0.
     10966.0      0.90191           0.
     10968.0      0.90197           0.
     10970.0      0.90186           0.
     10972.0      0.90204           0.
     10974.0      0.90165           0.
     10976.0      0.90165           0.
     10978.0      0.90189           0.
     10980.0      0.90219           0.
     10982.0      0.90208           0.
     10984.0      0.90204           0.
     10986.0      0.90227           0.
     10988.0      0.90186           0.
     10990.0      0.90148           0.
     10992.0      0.90119           0.
     10994.0      0.90091           0.
     10996.0      0.90066           0.
     10998.0      0.89992           0.
     11000.0      0.90066           0.
